"subj_id","left_word","left_number","middle_word","middle_number","right_word","right_number","correct_choice_position","is_catch_trial","participant_response_position_e2","is_consistent","trial_num","chose_gems","chose_onlystones","chose_other","response_position","stoneposition","chose_gems_p2","chose_onlystones_p2","chose_other_p2","response_position_p2","correct_choice_position_p2","rt","rt_p2","mentioned_rule"
"66b5172c8f0bd3b23ce66c22","Bag",4,"Mirror",4,"Rabbit",4,"left",FALSE,"middle",TRUE,1,FALSE,FALSE,TRUE,"middle","right",FALSE,FALSE,TRUE,"middle","left",3696.79999995232,1998.79999995232,FALSE
"5ba60abd9629a90001b36fdc","Paints",1,"Window",5,"Doughnut",5,"right",FALSE,"right",TRUE,1,TRUE,FALSE,FALSE,"right","left",TRUE,FALSE,FALSE,"right","right",10071.6999999881,2312,FALSE
"65dc99d0191a135ab835bf69","Sand",3,"Train",4,"Towels",4,"middle",FALSE,"middle",TRUE,1,TRUE,FALSE,FALSE,"middle","right",TRUE,FALSE,FALSE,"middle","middle",3533.5,3976.5,FALSE
"60fe7bf61c7567f5cca9ade6","Sheep",5,"Pig",2,"Scissors",2,"left",FALSE,"left",TRUE,1,TRUE,FALSE,FALSE,"left","right",TRUE,FALSE,FALSE,"left","left",2505.90000000596,2269.29999999702,TRUE
"5c9d88bb2b3c77001744ec1c","Helicopter",2,"Cake",1,"Zebra",1,"right",FALSE,"right",TRUE,1,TRUE,FALSE,FALSE,"right","middle",TRUE,FALSE,FALSE,"right","right",3472.5,2708.10000000149,FALSE
"5e283f576dbb560114ac7714","Lion",3,"Stool",5,"Bow",5,"middle",FALSE,"left",TRUE,1,FALSE,TRUE,FALSE,"left","left",FALSE,TRUE,FALSE,"left","middle",8892.19999980927,3093.90000009537,FALSE
"62e02b1ed5b0fbc1b1dc09e7","Marker",1,"Wing",3,"Popsicle",3,"middle",FALSE,"middle",FALSE,1,FALSE,TRUE,FALSE,"right","right",TRUE,FALSE,FALSE,"middle","middle",2685.60000002384,2886.69999992847,FALSE
"5ecf9b46617a9b3dd56b3fe3","Belt",5,"Newspaper",4,"Duck",4,"middle",FALSE,"left",TRUE,1,FALSE,FALSE,TRUE,"left","right",FALSE,FALSE,TRUE,"left","middle",5483,5072,TRUE
"590b3401182caf0001ab5801","Paper",4,"Umbrella",5,"CD",5,"middle",FALSE,"middle",TRUE,1,TRUE,FALSE,FALSE,"middle","left",TRUE,FALSE,FALSE,"middle","middle",3297.59999996424,2602.70000004768,FALSE
"65c11389b0d2ba8e63cb8b22","Belt",1,"Toothpaste",5,"Computer",5,"right",FALSE,"middle",TRUE,1,FALSE,FALSE,TRUE,"middle","left",FALSE,FALSE,TRUE,"middle","right",4207.29999995232,2079,FALSE
"5d15160539eeea001683830c","Sheep",4,"Barn",2,"Bottle",2,"right",FALSE,"left",FALSE,1,FALSE,FALSE,TRUE,"middle","left",FALSE,TRUE,FALSE,"left","right",4271.5,4695.59999999963,FALSE
"6620b6a209127dafd5b2dfb9","Leg",5,"Scooter",1,"Swimsuit",1,"left",FALSE,"right",FALSE,1,TRUE,FALSE,FALSE,"left","middle",FALSE,FALSE,TRUE,"right","left",4877.29999995232,3866.89999997616,FALSE
"56c65a5a305eaa0005f2a634","Meat",4,"House",5,"Button",5,"left",FALSE,"middle",TRUE,1,FALSE,TRUE,FALSE,"middle","middle",FALSE,TRUE,FALSE,"middle","left",6849.39999999991,2139,FALSE
"59fb1518b47dfc0001b6659b","Vacuum",3,"Stars",2,"Giraffe",2,"left",FALSE,"right",TRUE,1,FALSE,FALSE,TRUE,"right","middle",FALSE,FALSE,TRUE,"right","left",1723,2382,FALSE
"602c0fc2eff74b4748e9b41e","Money",1,"Candle",5,"Chips",5,"middle",FALSE,"middle",TRUE,1,TRUE,FALSE,FALSE,"middle","left",TRUE,FALSE,FALSE,"middle","middle",3255,1172,FALSE
"5bcc98d1db645700015222b5","Hips",4,"Wagon",1,"Blanket",1,"middle",FALSE,"left",TRUE,1,FALSE,FALSE,TRUE,"left","right",FALSE,FALSE,TRUE,"left","middle",4572.09999999963,1674.09999999963,FALSE
"6773e6e6b205d22a2e097735","Cupcake",4,"Magazine",2,"Snake",2,"right",FALSE,"left",FALSE,1,FALSE,FALSE,TRUE,"middle","left",FALSE,TRUE,FALSE,"left","right",3073.70000004768,2194.20000004768,FALSE
"67505c42a18c872bab88ed42","Sheep",5,"Octopus",5,"Tie",5,"right",FALSE,"right",TRUE,1,TRUE,FALSE,FALSE,"right","left",TRUE,FALSE,FALSE,"right","right",8512.10000002384,1937.80000001192,FALSE
"62a1e021702679d27813a3e2","Swimsuit",2,"Bell",5,"Sticker",5,"right",FALSE,"left",TRUE,1,FALSE,TRUE,FALSE,"left","left",FALSE,TRUE,FALSE,"left","right",4386.90000009537,2293.80000019073,FALSE
"639f294882a3797f77a3dd81","Window",2,"Shoes",3,"Napkin",3,"right",FALSE,"middle",FALSE,1,FALSE,TRUE,FALSE,"left","left",FALSE,FALSE,TRUE,"middle","right",2643,2997.70000004768,FALSE
"654bc148c95bca00d541ec33","Corn",4,"Stamps",3,"Butter",3,"right",FALSE,"left",TRUE,1,FALSE,TRUE,FALSE,"left","left",FALSE,TRUE,FALSE,"left","right",2467.5,3819.69999992847,TRUE
"5d23460ad4c57900192b129c","Zipper",1,"Fly",4,"Boots",4,"middle",FALSE,"middle",TRUE,1,TRUE,FALSE,FALSE,"middle","left",TRUE,FALSE,FALSE,"middle","middle",4140.19999999925,3597.20000000112,FALSE
"67673cda94b4d0cf1a6a7382","Popcorn",5,"Sandwich",1,"Octopus",1,"right",FALSE,"left",TRUE,1,FALSE,FALSE,TRUE,"left","middle",FALSE,FALSE,TRUE,"left","right",2997.29999995232,3996.80000007153,FALSE
"5c4f5967aac8be0001716a65","Cheese",5,"Teapot",4,"Feet",4,"middle",FALSE,"middle",TRUE,1,TRUE,FALSE,FALSE,"middle","left",TRUE,FALSE,FALSE,"middle","middle",4027.5,1788.70000004768,FALSE
"67758c9a30d6819221153393","Stove",5,"Battery",3,"Refrigerator",3,"left",FALSE,"left",FALSE,1,FALSE,FALSE,TRUE,"middle","right",TRUE,FALSE,FALSE,"left","left",3364.29999999702,2866.39999999851,FALSE
"66b37344796f45313433abc8","Bone",5,"Battery",1,"Pants",1,"right",FALSE,"middle",TRUE,1,FALSE,TRUE,FALSE,"middle","middle",FALSE,TRUE,FALSE,"middle","right",3549.39999999851,4920.80000000075,FALSE
"632096b5574155e8727c50cc","Pizza",1,"Glasses",1,"Kangaroo",1,"middle",FALSE,"middle",TRUE,1,TRUE,FALSE,FALSE,"middle","right",TRUE,FALSE,FALSE,"middle","middle",2902.5,3208,FALSE
"66dcc0e54f44ccecf2730c76","Octopus",1,"Movie",1,"Carrots",1,"right",FALSE,"right",TRUE,1,TRUE,FALSE,FALSE,"right","left",TRUE,FALSE,FALSE,"right","right",4826.39999999944,5184.5,TRUE
"60fac7ec133b6bf250d6d668","Shovel",2,"Lion",3,"Hoop",3,"middle",FALSE,"middle",TRUE,1,TRUE,FALSE,FALSE,"middle","right",TRUE,FALSE,FALSE,"middle","middle",2979.80000001192,5379.09999999404,FALSE
"5e459f61418f610891628564","Pan",5,"Bike",2,"Chalk",2,"middle",FALSE,"left",FALSE,1,FALSE,TRUE,FALSE,"right","right",FALSE,FALSE,TRUE,"left","middle",4811.39999985695,4037.59999990463,FALSE
"5e89ec793c01b3685a00bb12","Barn",3,"Table",5,"Net",5,"right",FALSE,"middle",TRUE,1,FALSE,FALSE,TRUE,"middle","left",FALSE,FALSE,TRUE,"middle","right",3583.20000004768,4018,FALSE
"631d197eba06364cbea7fab2","Stove",4,"Stool",1,"Scissors",1,"left",FALSE,"right",TRUE,1,FALSE,FALSE,TRUE,"right","middle",FALSE,FALSE,TRUE,"right","left",7775.20000004768,5898.79999995232,TRUE
"66fd3f6c93c24ecc119be354","Monkey",5,"Glue",3,"Toilet",3,"right",FALSE,"middle",TRUE,1,FALSE,FALSE,TRUE,"middle","left",FALSE,FALSE,TRUE,"middle","right",3504,7439,TRUE
"5af1a4bc6e136b0001411714","Glove",2,"Fish",4,"Giraffe",4,"right",FALSE,"left",TRUE,1,FALSE,FALSE,TRUE,"left","middle",FALSE,FALSE,TRUE,"left","right",3238.60000000149,2236.59999999776,FALSE
"60ed501279c68ea1a313d0aa","Soap",3,"Clock",2,"Clown",2,"left",FALSE,"left",TRUE,1,TRUE,FALSE,FALSE,"left","right",TRUE,FALSE,FALSE,"left","left",2886.89999961853,2768.30000114441,FALSE
"5bf2f728bd9f150001f6cc42","Ostrich",3,"Ice Cream",1,"Zipper",1,"right",FALSE,"right",FALSE,1,FALSE,FALSE,TRUE,"left","middle",TRUE,FALSE,FALSE,"right","right",3918.40000000002,2631.90000000002,FALSE
"59a734ce0c87a000017481ed","Pear",5,"Toothpaste",3,"Barn",3,"left",TRUE,"middle",FALSE,1,TRUE,FALSE,FALSE,"left","right",FALSE,FALSE,TRUE,"middle","left",1665.5,1707.20000004768,FALSE
"615e420a23219efe3427a367","Popsicle",4,"Ankle",2,"Coloring Book",2,"left",FALSE,"middle",TRUE,1,FALSE,FALSE,TRUE,"middle","right",FALSE,FALSE,TRUE,"middle","left",4656.59999990463,4614.70000004768,FALSE
"66b244a2f436437d3e109bbe","Stars",3,"Watch",3,"Cereal",3,"left",FALSE,"left",TRUE,1,TRUE,FALSE,FALSE,"left","right",TRUE,FALSE,FALSE,"left","left",5262.89999985695,4751.30000019073,TRUE
"5f1b05a8703c380d1393bb27","Mountain",2,"Pan",4,"Tummy",4,"left",FALSE,"middle",TRUE,1,FALSE,FALSE,TRUE,"middle","right",FALSE,FALSE,TRUE,"middle","left",4860,4602,FALSE
"6684497541f835bd67a199b2","Puppets",4,"Bird",5,"Tractor",5,"right",FALSE,"right",FALSE,1,FALSE,FALSE,TRUE,"middle","left",TRUE,FALSE,FALSE,"right","right",6778,1852,FALSE
"5eeddefa177a7322144cbc5e","Backpack",3,"Helicopter",4,"Duck",4,"left",FALSE,"left",FALSE,1,FALSE,TRUE,FALSE,"middle","middle",TRUE,FALSE,FALSE,"left","left",3753.70000000298,3675.89999999851,FALSE
"63ee9abfa262bea95766dd9c","Head",4,"Paper",5,"Square",5,"right",FALSE,"middle",FALSE,1,FALSE,TRUE,FALSE,"left","left",FALSE,FALSE,TRUE,"middle","right",5309.09999999998,2206.29999999981,TRUE
"66cfab152c56aa0472529001","Net",1,"Refrigerator",2,"Crackers",2,"left",FALSE,"right",TRUE,1,FALSE,FALSE,TRUE,"right","middle",FALSE,FALSE,TRUE,"right","left",6120.5,5402.39999997616,TRUE
"6571fd9d691befe21fa61d18","Elephant",2,"Grass",5,"Wing",5,"middle",FALSE,"middle",TRUE,1,TRUE,FALSE,FALSE,"middle","left",TRUE,FALSE,FALSE,"middle","middle",13557.6999999881,5534.60000002384,FALSE
"66312361cf5d4099e1330532","Coloring Book",4,"Teeth",4,"Shampoo",4,"middle",FALSE,"right",TRUE,1,FALSE,TRUE,FALSE,"right","right",FALSE,TRUE,FALSE,"right","middle",3074,3497.90000009537,FALSE
"6722ea20fb84b196f0a649b6","Envelope",1,"Soda",4,"Skateboard",4,"middle",FALSE,"middle",FALSE,1,FALSE,FALSE,TRUE,"right","left",TRUE,FALSE,FALSE,"middle","middle",3552.80000001192,2448.90000003576,FALSE
"5ddce9f0f85b50c4fc1515a4","Head",1,"Zipper",5,"Scissors",5,"left",FALSE,"middle",TRUE,1,FALSE,FALSE,TRUE,"middle","right",FALSE,FALSE,TRUE,"middle","left",6857.30000000028,2079.60000000009,FALSE
"5c3bdbf548ad2900017fac31","Soap",4,"Fork",1,"Nest",1,"right",FALSE,"left",TRUE,1,FALSE,FALSE,TRUE,"left","middle",FALSE,FALSE,TRUE,"left","right",6497.19999999553,1829.39999999851,FALSE
"6844a1b95271dfc560af4709","Camera",3,"Slinky",2,"Fingers",2,"middle",FALSE,"middle",TRUE,1,TRUE,FALSE,FALSE,"middle","left",TRUE,FALSE,FALSE,"middle","middle",2401.89999997616,1727.20000004768,FALSE
"616ef680ab8ca318a227f5ec","Shampoo",4,"Milk",2,"Kangaroo",2,"right",FALSE,"left",TRUE,1,FALSE,FALSE,TRUE,"left","middle",FALSE,FALSE,TRUE,"left","right",3749.89999997616,2077.20000004768,FALSE
"66d9cd06e207a93377f7820e","Scissors",5,"Pear",1,"Shoulders",1,"middle",TRUE,"middle",TRUE,1,TRUE,FALSE,FALSE,"middle","left",TRUE,FALSE,FALSE,"middle","middle",3911.30000007153,4952.89999997616,TRUE
"5962a5b29955ee00015bce98","Monkey",2,"Jacket",5,"Can",5,"right",FALSE,"right",FALSE,1,FALSE,TRUE,FALSE,"middle","middle",TRUE,FALSE,FALSE,"right","right",5911.59999999404,2031.80000001192,TRUE
"641384b3dffcf39ec42d3c23","Toothpaste",5,"Bottle",1,"Yogurt",1,"left",FALSE,"left",TRUE,1,TRUE,FALSE,FALSE,"left","right",TRUE,FALSE,FALSE,"left","left",4574.39999997616,3983.5,FALSE
"59692d61355b45000106c592","Popcorn",1,"Phone",4,"Hammer",4,"left",FALSE,"middle",TRUE,1,FALSE,TRUE,FALSE,"middle","middle",FALSE,TRUE,FALSE,"middle","left",4749.69999998808,5373.80000001192,FALSE
"5dd05d80b2204f1487f7812c","Earring",3,"Sandwich",2,"Candle",2,"left",FALSE,"left",TRUE,1,TRUE,FALSE,FALSE,"left","middle",TRUE,FALSE,FALSE,"left","left",3262.60000000149,3413,FALSE
"6321d9c78e8e3c04f82a0ea0","Nose",3,"Pie",5,"Broom",5,"right",FALSE,"middle",TRUE,1,FALSE,FALSE,TRUE,"middle","left",FALSE,FALSE,TRUE,"middle","right",2279.10000002384,2148.39999997616,FALSE
"632d189d6b8f03d0d3db4c48","Towels",2,"Hips",2,"Sun",2,"middle",FALSE,"right",TRUE,1,FALSE,TRUE,FALSE,"right","right",FALSE,TRUE,FALSE,"right","middle",3469.10000000009,4786.10000000009,TRUE
"63b3377ca1ccdfc7cc567503","Battery",4,"Boots",2,"Hands",2,"right",FALSE,"right",TRUE,1,TRUE,FALSE,FALSE,"right","left",TRUE,FALSE,FALSE,"right","right",5104,5481,TRUE
"6678813aec86d687a654dedb","Bottle",5,"Toy",5,"Circle",5,"middle",FALSE,"left",FALSE,1,TRUE,FALSE,FALSE,"middle","left",FALSE,TRUE,FALSE,"left","middle",3671.09999990463,5038.40000009537,FALSE
"55cce6ea34e90600058d1e6d","Horse",3,"Dress",1,"Yogurt",1,"right",FALSE,"left",TRUE,1,FALSE,FALSE,TRUE,"left","middle",FALSE,FALSE,TRUE,"left","right",6307,1941,FALSE
"6658bba1a51a037d25bb677e","Sofa",4,"Fire",3,"Paints",3,"middle",FALSE,"middle",FALSE,1,FALSE,TRUE,FALSE,"left","left",TRUE,FALSE,FALSE,"middle","middle",5213.5,2491.89999999106,TRUE
"60f5df9db9380d875c320307","Vacuum",3,"Radio",2,"Plate",2,"middle",FALSE,"middle",FALSE,1,FALSE,TRUE,FALSE,"left","left",TRUE,FALSE,FALSE,"middle","middle",5105.90000003576,3189.80000001192,FALSE
"63d5b810f3dbbd11e7e65870","Toilet",1,"Bandaid",3,"Tractor",3,"right",FALSE,"left",FALSE,1,FALSE,TRUE,FALSE,"middle","middle",FALSE,FALSE,TRUE,"left","right",4093.30000007153,3430.10000002384,FALSE
"66d1fdd400acfdbc181f41e0","Scissors",4,"House",1,"Pan",1,"left",FALSE,"left",TRUE,1,TRUE,FALSE,FALSE,"left","middle",TRUE,FALSE,FALSE,"left","left",9418.69999980926,4539.90000009537,FALSE
"67b636c4ea38855cbb08ffe3","Bacon",3,"Rope",1,"Stars",1,"left",FALSE,"right",FALSE,1,FALSE,TRUE,FALSE,"middle","middle",FALSE,FALSE,TRUE,"right","left",7088.89999997616,4986.70000004768,FALSE
"5e1b795dc799223a3b447ada","Bucket",3,"Yo-yo",4,"Cherry",4,"right",TRUE,"middle",FALSE,1,TRUE,FALSE,FALSE,"right","left",FALSE,FALSE,TRUE,"middle","right",1851.89999999851,6176.39999999851,FALSE
"5c5cad3e4ee81200018eafe2","Backpack",5,"Shirt",4,"Comb",4,"left",FALSE,"left",FALSE,1,FALSE,TRUE,FALSE,"middle","middle",TRUE,FALSE,FALSE,"left","left",4498.5,2533.19999998808,FALSE
"5bc5be2572df5f00014479f9","Keys",3,"Feather",1,"Coloring Book",1,"middle",FALSE,"right",FALSE,1,FALSE,TRUE,FALSE,"left","left",FALSE,FALSE,TRUE,"right","middle",5875.5,3217.20000000112,FALSE
"5f8f436e4676a71879786b95","Cake",2,"Strawberries",3,"Eyes",3,"middle",TRUE,"middle",TRUE,1,TRUE,FALSE,FALSE,"middle","right",TRUE,FALSE,FALSE,"middle","middle",1580.09999999404,2013.60000000894,FALSE
"669053bbebafdd430e770142","Lizard",5,"Mailbox",5,"Grapes",5,"right",TRUE,"right",TRUE,1,TRUE,FALSE,FALSE,"right","left",TRUE,FALSE,FALSE,"right","right",1677,2325.10000038147,FALSE
"677419f93048c66d62d2bf87","Pancakes",4,"Popsicle",1,"Oranges",1,"right",TRUE,"right",TRUE,1,TRUE,FALSE,FALSE,"right","middle",TRUE,FALSE,FALSE,"right","right",3816,2468,FALSE
"574aff1b5bef980007af2745","Pancakes",3,"Kangaroo",1,"Lion",1,"right",FALSE,"middle",FALSE,1,FALSE,FALSE,TRUE,"left","middle",FALSE,TRUE,FALSE,"middle","right",8357,6080,FALSE
"58404fd8ad98e40001ce915f","Mailbox",5,"Pillow",3,"Whistle",3,"middle",FALSE,"middle",FALSE,1,FALSE,TRUE,FALSE,"left","left",TRUE,FALSE,FALSE,"middle","middle",3635.09999999776,4436.39999999851,FALSE
"5de8887aa2db898017debf1a","Stars",3,"Octopus",5,"Coloring Book",5,"middle",FALSE,"middle",TRUE,1,TRUE,FALSE,FALSE,"middle","right",TRUE,FALSE,FALSE,"middle","middle",8081.5,2481,FALSE
"59d949cf8fd07a000184247e","Bag",3,"Peas",3,"Sandals",3,"left",FALSE,"middle",FALSE,1,FALSE,FALSE,TRUE,"right","middle",FALSE,TRUE,FALSE,"middle","left",4272,2236.60000002384,FALSE
"662945728093113a43ab8077","Pot",5,"Fries",3,"Earring",3,"middle",FALSE,"middle",FALSE,1,FALSE,TRUE,FALSE,"left","left",TRUE,FALSE,FALSE,"middle","middle",5958.29999995232,4349,TRUE
"676058418c08c71e4bb7cbd1","Socks",3,"Nose",5,"Boots",5,"right",FALSE,"middle",TRUE,1,FALSE,TRUE,FALSE,"middle","middle",FALSE,TRUE,FALSE,"middle","right",10287.7999999523,3089.29999995232,TRUE
"6643d22289210a4edf21e84d","Chair",5,"Towels",5,"Cheese",5,"left",FALSE,"right",TRUE,1,FALSE,FALSE,TRUE,"right","middle",FALSE,FALSE,TRUE,"right","left",1840.79999995232,2187.59999990463,FALSE
"58954e2dc88c680001dd4b7e","Lizard",5,"Balls",2,"Tie",2,"left",FALSE,"left",TRUE,1,TRUE,FALSE,FALSE,"left","middle",TRUE,FALSE,FALSE,"left","left",4826.60000000149,2184.09999999776,TRUE
"5b757a03976ecb0001b1168f","Rock",5,"Swimsuit",2,"Tricycle",2,"left",FALSE,"left",TRUE,1,TRUE,FALSE,FALSE,"left","middle",TRUE,FALSE,FALSE,"left","left",5203.09999990463,1645.70000004768,FALSE
"681b781064a5701a5ceee3bc","Glove",1,"Candle",3,"Bat",3,"right",FALSE,"right",TRUE,1,TRUE,FALSE,FALSE,"right","middle",TRUE,FALSE,FALSE,"right","right",2678.5,4031.5,TRUE
"6716c6700f376dc7f534af9d","Slide",4,"Cow",5,"Kangaroo",5,"left",FALSE,"right",FALSE,1,FALSE,TRUE,FALSE,"middle","middle",FALSE,FALSE,TRUE,"right","left",14395.4000000954,4343.19999980927,FALSE
"671a3ac3dada5efe6d439698","Oranges",4,"Computer",3,"Ankle",3,"left",TRUE,"left",TRUE,1,TRUE,FALSE,FALSE,"left","middle",TRUE,FALSE,FALSE,"left","left",1987,6993.2999997139,FALSE
"676b89007874c8eace113276","Stick",3,"Cow",5,"Bowl",5,"left",FALSE,"left",FALSE,1,FALSE,TRUE,FALSE,"middle","middle",TRUE,FALSE,FALSE,"left","left",6725,1763,FALSE
"6825af939111d286546fdde6","Books",2,"Mouth",4,"Yogurt",4,"middle",FALSE,"right",TRUE,1,FALSE,TRUE,FALSE,"right","right",FALSE,TRUE,FALSE,"right","middle",4905.10000014305,4147.09999990463,FALSE
"67164c92298409e37c670b3d","Cookies",1,"Clown",4,"Triangle",4,"right",FALSE,"middle",TRUE,1,FALSE,FALSE,TRUE,"middle","left",FALSE,FALSE,TRUE,"middle","right",3826.5,4088,FALSE
"682b3f63d0e2c4eff64fe664","Dress",4,"Moon",4,"Stick",4,"middle",FALSE,"middle",TRUE,1,TRUE,FALSE,FALSE,"middle","left",TRUE,FALSE,FALSE,"middle","middle",3852.60000002384,2379.59999999404,TRUE
"5d3695969749cc00165c222f","Butter",3,"Door",2,"Soup",2,"left",FALSE,"left",FALSE,1,FALSE,FALSE,TRUE,"middle","right",TRUE,FALSE,FALSE,"left","left",4175.69999998808,1223.30000001192,TRUE
"664521e03117b782ed4fff45","Crackers",3,"Money",3,"Movie",3,"middle",FALSE,"left",FALSE,1,FALSE,FALSE,TRUE,"right","left",FALSE,TRUE,FALSE,"left","middle",6340.29999999702,4552.20000000298,FALSE
"6773dea609f77d473900997a","Video Tape",4,"Pants",5,"Pool",5,"left",FALSE,"left",TRUE,1,TRUE,FALSE,FALSE,"left","middle",TRUE,FALSE,FALSE,"left","left",11871.9000000358,6108.89999997616,TRUE
"637fcee60a8378c1c3a65898","CD",3,"Bell",1,"Shorts",1,"right",FALSE,"right",TRUE,1,TRUE,FALSE,FALSE,"right","middle",TRUE,FALSE,FALSE,"right","right",7510.19999998808,2763.19999998808,FALSE
"63f77a5dde1ea03305e119e0","Fingers",3,"Jump rope",5,"Shoes",5,"middle",FALSE,"left",TRUE,1,FALSE,FALSE,TRUE,"left","right",FALSE,FALSE,TRUE,"left","middle",4747.40000000224,1346.09999999776,FALSE
"5fbf90f025a567296d943c7e","Refrigerator",4,"Table",3,"Pen",3,"left",FALSE,"left",TRUE,1,TRUE,FALSE,FALSE,"left","middle",TRUE,FALSE,FALSE,"left","left",6109.39999985695,3061.09999990463,FALSE
"636d6ce3fb3683ff33f9e514","Sofa",2,"Spiderweb",2,"Circle",2,"right",FALSE,"right",TRUE,1,TRUE,FALSE,FALSE,"right","middle",TRUE,FALSE,FALSE,"right","right",6095,2604,FALSE
"5af2a03697a14300017d2ba4","Mountain",5,"Chair",3,"Camera",3,"right",FALSE,"left",TRUE,1,FALSE,FALSE,TRUE,"left","middle",FALSE,FALSE,TRUE,"left","right",6450,5130,FALSE
"60e3a25e8be835f754795d93","Mouse",3,"Nest",1,"Ankle",1,"right",FALSE,"left",TRUE,1,FALSE,TRUE,FALSE,"left","left",FALSE,TRUE,FALSE,"left","right",3439.7999997139,2687.09999990463,TRUE
"66b5172c8f0bd3b23ce66c22","Wheel",4,"Suitcase",1,"Shampoo",1,"middle",FALSE,"right",TRUE,2,FALSE,TRUE,FALSE,"right","right",FALSE,TRUE,FALSE,"right","middle",2450.59999990463,1931.89999997616,FALSE
"5ba60abd9629a90001b36fdc","String",4,"Newspaper",1,"Soap",1,"right",FALSE,"right",FALSE,2,FALSE,TRUE,FALSE,"left","left",TRUE,FALSE,FALSE,"right","right",4656.30000001192,4357.19999998808,FALSE
"65dc99d0191a135ab835bf69","Marker",5,"Puppets",3,"Dress",3,"left",FALSE,"left",TRUE,2,TRUE,FALSE,FALSE,"left","right",TRUE,FALSE,FALSE,"left","left",3042.59999999776,1920.5,FALSE
"60fe7bf61c7567f5cca9ade6","Bat",4,"Shampoo",1,"Button",1,"left",FALSE,"right",TRUE,2,FALSE,TRUE,FALSE,"right","right",FALSE,TRUE,FALSE,"right","left",3505.20000000298,2402.59999999404,TRUE
"5c9d88bb2b3c77001744ec1c","Bone",2,"Toes",4,"Pajamas",4,"right",FALSE,"right",FALSE,2,FALSE,TRUE,FALSE,"middle","middle",TRUE,FALSE,FALSE,"right","right",2798.39999999851,2511,FALSE
"5e283f576dbb560114ac7714","Wheel",1,"Envelope",3,"Hoop",3,"right",FALSE,"left",TRUE,2,FALSE,TRUE,FALSE,"left","left",FALSE,TRUE,FALSE,"left","right",7711.10000014305,10542.7999999523,FALSE
"62e02b1ed5b0fbc1b1dc09e7","Elbow",3,"String",1,"Tape",1,"middle",FALSE,"left",TRUE,2,FALSE,FALSE,TRUE,"left","right",FALSE,FALSE,TRUE,"left","middle",2758.29999995232,1655.60000002384,FALSE
"5ecf9b46617a9b3dd56b3fe3","Popsicle",2,"Tummy",4,"Watch",4,"middle",FALSE,"left",FALSE,2,FALSE,TRUE,FALSE,"right","right",FALSE,FALSE,TRUE,"left","middle",4310.39999997616,3107.60000002384,TRUE
"590b3401182caf0001ab5801","Crown",3,"Popsicle",5,"Chips",5,"middle",FALSE,"middle",TRUE,2,TRUE,FALSE,FALSE,"middle","left",TRUE,FALSE,FALSE,"middle","middle",2961.5,2057.30000001192,FALSE
"65c11389b0d2ba8e63cb8b22","Hoop",1,"Umbrella",5,"Peas",5,"middle",FALSE,"middle",FALSE,2,FALSE,TRUE,FALSE,"left","left",TRUE,FALSE,FALSE,"middle","middle",2279.90000009537,2493.39999985695,FALSE
"5d15160539eeea001683830c","Soup",1,"Dolls",5,"Monkey",5,"middle",FALSE,"middle",TRUE,2,TRUE,FALSE,FALSE,"middle","left",TRUE,FALSE,FALSE,"middle","middle",3997.09999999963,3906.59999999963,FALSE
"6620b6a209127dafd5b2dfb9","Nose",1,"Rock",5,"Yogurt",5,"left",FALSE,"right",FALSE,2,FALSE,TRUE,FALSE,"middle","middle",FALSE,FALSE,TRUE,"right","left",3236.19999998808,2842.10000002384,FALSE
"56c65a5a305eaa0005f2a634","Umbrella",2,"Computer",3,"Blocks",3,"right",FALSE,"right",TRUE,2,TRUE,FALSE,FALSE,"right","middle",TRUE,FALSE,FALSE,"right","right",1872.39999999991,2695.39999999944,FALSE
"59fb1518b47dfc0001b6659b","Snow",2,"Toothpaste",3,"Glue",3,"left",FALSE,"middle",TRUE,2,FALSE,TRUE,FALSE,"middle","middle",FALSE,TRUE,FALSE,"middle","left",2503,2406,FALSE
"602c0fc2eff74b4748e9b41e","Popcorn",4,"Flashlight",5,"Scooter",5,"middle",FALSE,"middle",TRUE,2,TRUE,FALSE,FALSE,"middle","left",TRUE,FALSE,FALSE,"middle","middle",1872,4208,FALSE
"5bcc98d1db645700015222b5","Bed",4,"Sink",2,"Belt",2,"left",FALSE,"left",TRUE,2,TRUE,FALSE,FALSE,"left","right",TRUE,FALSE,FALSE,"left","left",2730.70000000112,5229.5,FALSE
"6773e6e6b205d22a2e097735","Shampoo",4,"Carrots",4,"Camera",4,"middle",FALSE,"middle",TRUE,2,TRUE,FALSE,FALSE,"middle","left",TRUE,FALSE,FALSE,"middle","middle",1031,1949.59999990463,FALSE
"67505c42a18c872bab88ed42","Dog",5,"String",2,"Button",2,"right",FALSE,"right",FALSE,2,FALSE,FALSE,TRUE,"middle","left",TRUE,FALSE,FALSE,"right","right",2868.5,2762.29999995232,FALSE
"62a1e021702679d27813a3e2","Fork",2,"Flower",3,"Tummy",3,"right",FALSE,"left",FALSE,2,FALSE,FALSE,TRUE,"middle","left",FALSE,TRUE,FALSE,"left","right",4396.69999980927,2813.79999995232,FALSE
"639f294882a3797f77a3dd81","Bed",4,"Airplane",1,"Hanger",1,"middle",FALSE,"right",FALSE,2,FALSE,TRUE,FALSE,"left","left",FALSE,FALSE,TRUE,"right","middle",2398.5,3591.30000007153,FALSE
"654bc148c95bca00d541ec33","Hot Dog",2,"Grapes",1,"Bed",1,"middle",TRUE,"middle",TRUE,2,TRUE,FALSE,FALSE,"middle","left",TRUE,FALSE,FALSE,"middle","middle",1557.39999997616,1567.5,TRUE
"5d23460ad4c57900192b129c","Napkin",3,"Cookies",2,"Mouth",2,"middle",FALSE,"left",TRUE,2,FALSE,TRUE,FALSE,"left","left",FALSE,TRUE,FALSE,"left","middle",2784.29999999888,3124.70000000112,FALSE
"67673cda94b4d0cf1a6a7382","Duck",3,"Flashlight",5,"Monkey",5,"left",FALSE,"left",FALSE,2,FALSE,TRUE,FALSE,"middle","middle",TRUE,FALSE,FALSE,"left","left",5781.30000007153,2932.5,FALSE
"5c4f5967aac8be0001716a65","Chalk",1,"Pancakes",5,"Wagon",5,"right",FALSE,"middle",FALSE,2,TRUE,FALSE,FALSE,"right","left",FALSE,FALSE,TRUE,"middle","right",2884.60000002384,1781.79999995232,FALSE
"67758c9a30d6819221153393","Lion",4,"Clown",4,"Toy",4,"middle",FALSE,"middle",TRUE,2,TRUE,FALSE,FALSE,"middle","right",TRUE,FALSE,FALSE,"middle","middle",2279.5,3111.39999999851,FALSE
"66b37344796f45313433abc8","Rabbit",1,"Wing",4,"Chair",4,"right",FALSE,"middle",FALSE,2,TRUE,FALSE,FALSE,"right","middle",FALSE,TRUE,FALSE,"middle","right",2552,5003.39999999851,FALSE
"632096b5574155e8727c50cc","Swimsuit",1,"Pirate",5,"Popcorn",5,"left",FALSE,"right",FALSE,2,TRUE,FALSE,FALSE,"left","right",FALSE,TRUE,FALSE,"right","left",2077.59999999963,3126.60000000149,FALSE
"66dcc0e54f44ccecf2730c76","Fly",3,"Sweater",3,"Goal",3,"middle",FALSE,"middle",TRUE,2,TRUE,FALSE,FALSE,"middle","left",TRUE,FALSE,FALSE,"middle","middle",6227.09999999963,4106.20000000019,TRUE
"60fac7ec133b6bf250d6d668","House",1,"Butterfly",4,"Button",4,"left",FALSE,"left",FALSE,2,FALSE,TRUE,FALSE,"right","right",TRUE,FALSE,FALSE,"left","left",1013,4498.5,FALSE
"5e459f61418f610891628564","Pot",4,"Heart",1,"Shovel",1,"middle",FALSE,"left",FALSE,2,FALSE,TRUE,FALSE,"right","right",FALSE,FALSE,TRUE,"left","middle",3036.09999990463,2905.09999990463,FALSE
"5e89ec793c01b3685a00bb12","Bowl",4,"Diaper",4,"Bike",4,"middle",FALSE,"middle",FALSE,2,FALSE,TRUE,FALSE,"left","left",TRUE,FALSE,FALSE,"middle","middle",2497.5,3127.60000002384,FALSE
"631d197eba06364cbea7fab2","Brush",1,"Hair",5,"Cookies",5,"right",FALSE,"left",FALSE,2,FALSE,TRUE,FALSE,"middle","middle",FALSE,FALSE,TRUE,"left","right",3730.19999980927,4084.20000004768,TRUE
"66fd3f6c93c24ecc119be354","Video Tape",1,"Microphone",5,"Pizza",5,"right",FALSE,"right",TRUE,2,TRUE,FALSE,FALSE,"right","left",TRUE,FALSE,FALSE,"right","right",2937,3236,TRUE
"5af1a4bc6e136b0001411714","Pen",5,"Spider",4,"Bathtub",4,"right",FALSE,"right",FALSE,2,FALSE,TRUE,FALSE,"middle","middle",TRUE,FALSE,FALSE,"right","right",3843.19999999925,1981.59999999776,FALSE
"60ed501279c68ea1a313d0aa","Comb",3,"Tissue",1,"Rain",1,"middle",FALSE,"right",TRUE,2,FALSE,TRUE,FALSE,"right","right",FALSE,TRUE,FALSE,"right","middle",2309.89999961853,2808,FALSE
"5bf2f728bd9f150001f6cc42","Arm",4,"Drum",1,"Cookies",1,"left",FALSE,"left",TRUE,2,TRUE,FALSE,FALSE,"left","middle",TRUE,FALSE,FALSE,"left","left",2723.60000000009,2998.60000000009,FALSE
"59a734ce0c87a000017481ed","Sandals",4,"Sticker",5,"Pajamas",5,"middle",FALSE,"left",FALSE,2,TRUE,FALSE,FALSE,"middle","right",FALSE,FALSE,TRUE,"left","middle",3400.40000003576,5635.60000002384,FALSE
"615e420a23219efe3427a367","Box",4,"Wheel",1,"Popcorn",1,"middle",FALSE,"right",FALSE,2,FALSE,FALSE,TRUE,"left","right",FALSE,TRUE,FALSE,"right","middle",4463.80000019073,4771.90000009537,FALSE
"66b244a2f436437d3e109bbe","Cable",1,"Scissors",5,"Baby",5,"middle",FALSE,"left",FALSE,2,TRUE,FALSE,FALSE,"middle","right",FALSE,FALSE,TRUE,"left","middle",7059.39999985695,6076.79999995232,TRUE
"5f1b05a8703c380d1393bb27","Doughnut",2,"Rope",4,"Glove",4,"left",FALSE,"left",TRUE,2,TRUE,FALSE,FALSE,"left","right",TRUE,FALSE,FALSE,"left","left",1724,2556,FALSE
"6684497541f835bd67a199b2","Potatoes",4,"Toilet",3,"Bridge",3,"right",FALSE,"right",TRUE,2,TRUE,FALSE,FALSE,"right","left",TRUE,FALSE,FALSE,"right","right",2576.09999999404,2899.5,FALSE
"5eeddefa177a7322144cbc5e","Hot Dog",4,"Hands",5,"Bubbles",5,"right",FALSE,"right",TRUE,2,TRUE,FALSE,FALSE,"right","middle",TRUE,FALSE,FALSE,"right","right",5821.79999999702,6938.80000000447,FALSE
"63ee9abfa262bea95766dd9c","Spoon",1,"Hamburger",5,"Cloud",5,"middle",FALSE,"middle",TRUE,2,TRUE,FALSE,FALSE,"middle","left",TRUE,FALSE,FALSE,"middle","middle",3430.80000000005,4135.30000000005,TRUE
"66cfab152c56aa0472529001","Moon",3,"Candy",4,"Slide",4,"left",FALSE,"middle",TRUE,2,FALSE,TRUE,FALSE,"middle","middle",FALSE,TRUE,FALSE,"middle","left",2988.70000004768,6069.79999995232,TRUE
"6571fd9d691befe21fa61d18","Toothbrush",2,"Zebra",4,"Mouse",4,"right",FALSE,"right",TRUE,2,TRUE,FALSE,FALSE,"right","left",TRUE,FALSE,FALSE,"right","right",3557.40000003576,3080.69999998808,FALSE
"66312361cf5d4099e1330532","Battery",4,"Brush",4,"Cheese",4,"middle",FALSE,"right",TRUE,2,FALSE,TRUE,FALSE,"right","right",FALSE,TRUE,FALSE,"right","middle",2594.79999995232,1463.40000009537,FALSE
"6722ea20fb84b196f0a649b6","Wing",2,"Box",1,"Bat",1,"middle",FALSE,"right",TRUE,2,FALSE,FALSE,TRUE,"right","left",FALSE,FALSE,TRUE,"right","middle",2904.69999998808,6313.69999998808,FALSE
"5ddce9f0f85b50c4fc1515a4","Radio",2,"Comb",4,"Knee",4,"left",FALSE,"middle",FALSE,2,FALSE,TRUE,FALSE,"right","right",FALSE,FALSE,TRUE,"middle","left",2534.5,3636,FALSE
"5c3bdbf548ad2900017fac31","Radio",4,"Ankle",2,"Hat",2,"right",FALSE,"right",TRUE,2,TRUE,FALSE,FALSE,"right","middle",TRUE,FALSE,FALSE,"right","right",2578.39999999851,1510,FALSE
"6844a1b95271dfc560af4709","Soda",1,"Feet",1,"Boots",1,"middle",FALSE,"middle",FALSE,2,FALSE,FALSE,TRUE,"right","left",TRUE,FALSE,FALSE,"middle","middle",1523.10000002384,1161.30000007153,FALSE
"616ef680ab8ca318a227f5ec","Fork",2,"Puzzles",3,"Truck",3,"left",FALSE,"right",FALSE,2,FALSE,TRUE,FALSE,"middle","middle",FALSE,FALSE,TRUE,"right","left",5091.80000007153,4181.70000004768,FALSE
"66d9cd06e207a93377f7820e","Hose",3,"Car",1,"Turtle",1,"right",FALSE,"right",TRUE,2,TRUE,FALSE,FALSE,"right","left",TRUE,FALSE,FALSE,"right","right",6142,4047.30000007153,TRUE
"5962a5b29955ee00015bce98","Shoes",3,"Tricycle",1,"Heart",1,"right",FALSE,"right",TRUE,2,TRUE,FALSE,FALSE,"right","middle",TRUE,FALSE,FALSE,"right","right",2748.40000000596,2814.80000001192,TRUE
"641384b3dffcf39ec42d3c23","Clown",4,"Pan",2,"Cheese",2,"middle",FALSE,"left",TRUE,2,FALSE,FALSE,TRUE,"left","right",FALSE,FALSE,TRUE,"left","middle",3842.30000007153,2574.29999995232,FALSE
"59692d61355b45000106c592","Fly",3,"Glue",2,"Camera",2,"left",FALSE,"right",FALSE,2,FALSE,TRUE,FALSE,"middle","middle",FALSE,FALSE,TRUE,"right","left",2255.29999995232,1751.80000001192,FALSE
"5dd05d80b2204f1487f7812c","Nest",5,"Lunch",4,"Fire truck",4,"left",FALSE,"left",FALSE,2,FALSE,TRUE,FALSE,"middle","middle",TRUE,FALSE,FALSE,"left","left",2822.29999999702,2962.69999999925,FALSE
"6321d9c78e8e3c04f82a0ea0","Shovel",2,"Purse",4,"Hat",4,"right",FALSE,"right",FALSE,2,FALSE,TRUE,FALSE,"left","left",TRUE,FALSE,FALSE,"right","right",3178.19999992847,1386.5,FALSE
"632d189d6b8f03d0d3db4c48","Ring",5,"Giraffe",2,"Frog",2,"left",FALSE,"left",TRUE,2,TRUE,FALSE,FALSE,"left","right",TRUE,FALSE,FALSE,"left","left",2131.10000000009,3282,TRUE
"63b3377ca1ccdfc7cc567503","Rabbit",2,"Fingernail",4,"Potatoes",4,"right",FALSE,"right",TRUE,2,TRUE,FALSE,FALSE,"right","left",TRUE,FALSE,FALSE,"right","right",4881,4694,TRUE
"6678813aec86d687a654dedb","Pretzel",5,"Table",2,"Monkey",2,"right",FALSE,"left",TRUE,2,FALSE,TRUE,FALSE,"left","left",FALSE,TRUE,FALSE,"left","right",2474.19999980927,5279,FALSE
"55cce6ea34e90600058d1e6d","Hose",4,"Belt",4,"Puzzles",4,"right",FALSE,"middle",TRUE,2,FALSE,TRUE,FALSE,"middle","middle",FALSE,TRUE,FALSE,"middle","right",7260,1666,FALSE
"6658bba1a51a037d25bb677e","Money",4,"Puppets",3,"Zebra",3,"middle",FALSE,"middle",TRUE,2,TRUE,FALSE,FALSE,"middle","left",TRUE,FALSE,FALSE,"middle","middle",5819.5,3854,TRUE
"60f5df9db9380d875c320307","Curtain",2,"Leg",1,"Sandwich",1,"middle",FALSE,"left",TRUE,2,FALSE,TRUE,FALSE,"left","left",FALSE,TRUE,FALSE,"left","middle",9906.69999998808,3882.5,FALSE
"63d5b810f3dbbd11e7e65870","Crown",2,"Lunch",1,"Monkey",1,"left",FALSE,"middle",TRUE,2,FALSE,TRUE,FALSE,"middle","middle",FALSE,TRUE,FALSE,"middle","left",7212,1853.29999995232,FALSE
"66d1fdd400acfdbc181f41e0","Washcloth",1,"Truck",3,"Pizza",3,"left",FALSE,"right",TRUE,2,FALSE,FALSE,TRUE,"right","middle",FALSE,FALSE,TRUE,"right","left",4042.20000004768,2373,FALSE
"67b636c4ea38855cbb08ffe3","Water",1,"Bucket",3,"Tractor",3,"left",FALSE,"left",TRUE,2,TRUE,FALSE,FALSE,"left","middle",TRUE,FALSE,FALSE,"left","left",10311.5,3983.10000002384,FALSE
"5e1b795dc799223a3b447ada","Teeth",2,"Toilet",5,"Grass",5,"middle",FALSE,"right",FALSE,2,FALSE,TRUE,FALSE,"left","left",FALSE,FALSE,TRUE,"right","middle",2862.60000000149,2527.19999999553,FALSE
"5c5cad3e4ee81200018eafe2","Ankle",2,"Sandwich",5,"Yo-yo",5,"right",FALSE,"right",TRUE,2,TRUE,FALSE,FALSE,"right","middle",TRUE,FALSE,FALSE,"right","right",1416.80000001192,1806.5,FALSE
"5bc5be2572df5f00014479f9","Bee",1,"Bear",1,"Umbrella",1,"right",FALSE,"right",TRUE,2,TRUE,FALSE,FALSE,"right","left",TRUE,FALSE,FALSE,"right","right",2587.30000000075,2370.80000000075,FALSE
"5f8f436e4676a71879786b95","Eggs",3,"Oranges",5,"Cat",5,"middle",TRUE,"middle",TRUE,2,TRUE,FALSE,FALSE,"middle","right",TRUE,FALSE,FALSE,"middle","middle",1014.60000000894,1382.59999999404,FALSE
"669053bbebafdd430e770142","Socks",5,"Scissors",3,"Toothbrush",3,"right",FALSE,"left",TRUE,2,FALSE,TRUE,FALSE,"left","left",FALSE,TRUE,FALSE,"left","right",5125.70000076294,7447.20000076294,FALSE
"677419f93048c66d62d2bf87","Shorts",3,"Octopus",3,"Fly",3,"right",FALSE,"right",TRUE,2,TRUE,FALSE,FALSE,"right","middle",TRUE,FALSE,FALSE,"right","right",4980,3991,FALSE
"574aff1b5bef980007af2745","Notebook",5,"Stool",2,"Sandals",2,"right",FALSE,"middle",TRUE,2,FALSE,TRUE,FALSE,"middle","middle",FALSE,TRUE,FALSE,"middle","right",3993,4384,FALSE
"58404fd8ad98e40001ce915f","Soap",5,"Candy",5,"Cloud",5,"middle",FALSE,"middle",FALSE,2,FALSE,TRUE,FALSE,"left","left",TRUE,FALSE,FALSE,"middle","middle",3185.89999999851,2055.40000000224,FALSE
"5de8887aa2db898017debf1a","Blocks",3,"Teapot",1,"Feather",1,"left",FALSE,"middle",TRUE,2,FALSE,FALSE,TRUE,"middle","right",FALSE,FALSE,TRUE,"middle","left",3912.80000001192,2849.5,FALSE
"59d949cf8fd07a000184247e","Button",1,"Spaghetti",3,"Lamp",3,"left",FALSE,"right",TRUE,2,FALSE,FALSE,TRUE,"right","middle",FALSE,FALSE,TRUE,"right","left",2462.70000004768,2334.20000004768,FALSE
"662945728093113a43ab8077","Swing",1,"Curtain",5,"Fire",5,"right",FALSE,"middle",FALSE,2,TRUE,FALSE,FALSE,"right","left",FALSE,FALSE,TRUE,"middle","right",3322.29999995232,3123.80000019073,TRUE
"676058418c08c71e4bb7cbd1","Camera",4,"Napkin",5,"Ear",5,"right",FALSE,"right",FALSE,2,FALSE,FALSE,TRUE,"left","middle",TRUE,FALSE,FALSE,"right","right",3722.59999990463,5805.39999985695,TRUE
"6643d22289210a4edf21e84d","Strawberries",1,"Gorilla",1,"Swimsuit",1,"left",TRUE,"left",TRUE,2,TRUE,FALSE,FALSE,"left","middle",TRUE,FALSE,FALSE,"left","left",2118.70000004768,1569.5,FALSE
"58954e2dc88c680001dd4b7e","Pillow",1,"Glasses",1,"Envelope",1,"right",FALSE,"right",TRUE,2,TRUE,FALSE,FALSE,"right","middle",TRUE,FALSE,FALSE,"right","right",2577.60000000149,3394.5,TRUE
"5b757a03976ecb0001b1168f","Computer",3,"Pirate",1,"Books",1,"left",FALSE,"right",TRUE,2,FALSE,FALSE,TRUE,"right","middle",FALSE,FALSE,TRUE,"right","left",5285.70000004768,2230.10000002384,FALSE
"681b781064a5701a5ceee3bc","Duck",3,"Rainbow",3,"Sun",3,"right",FALSE,"middle",TRUE,2,FALSE,TRUE,FALSE,"middle","middle",FALSE,TRUE,FALSE,"middle","right",2864,2335.70000004768,TRUE
"6716c6700f376dc7f534af9d","Mailbox",5,"Cable",5,"Radio",5,"right",FALSE,"left",FALSE,2,TRUE,FALSE,FALSE,"right","middle",FALSE,FALSE,TRUE,"left","right",2527.5,7182.19999980927,FALSE
"671a3ac3dada5efe6d439698","Sofa",2,"Keys",1,"Candy",1,"right",FALSE,"right",TRUE,2,TRUE,FALSE,FALSE,"right","middle",TRUE,FALSE,FALSE,"right","right",5025,2635.69999980927,FALSE
"676b89007874c8eace113276","Slide",5,"Vacuum",5,"Bridge",5,"left",FALSE,"left",TRUE,2,TRUE,FALSE,FALSE,"left","middle",TRUE,FALSE,FALSE,"left","left",3335,3255,FALSE
"6825af939111d286546fdde6","Plate",5,"Money",3,"Tricycle",3,"left",FALSE,"middle",TRUE,2,FALSE,FALSE,TRUE,"middle","right",FALSE,FALSE,TRUE,"middle","left",1734.60000014305,2479.89999985695,FALSE
"67164c92298409e37c670b3d","Sweater",1,"Queen",5,"Magazine",5,"right",FALSE,"middle",TRUE,2,FALSE,FALSE,TRUE,"middle","left",FALSE,FALSE,TRUE,"middle","right",2700.19999999925,2574.09999999776,FALSE
"682b3f63d0e2c4eff64fe664","Bike",1,"Spaghetti",3,"Box",3,"middle",FALSE,"middle",TRUE,2,TRUE,FALSE,FALSE,"middle","left",TRUE,FALSE,FALSE,"middle","middle",4294.59999999404,2062.80000001192,TRUE
"5d3695969749cc00165c222f","Earring",3,"Bean",1,"Triangle",1,"middle",FALSE,"right",TRUE,2,FALSE,TRUE,FALSE,"right","right",FALSE,TRUE,FALSE,"right","middle",2248.59999996424,1511.5,TRUE
"664521e03117b782ed4fff45","Ice Cream",5,"Monkey",2,"Fish",2,"right",FALSE,"left",FALSE,2,FALSE,FALSE,TRUE,"middle","left",FALSE,TRUE,FALSE,"left","right",3698.89999999851,3336.89999999851,FALSE
"6773dea609f77d473900997a","Sandals",4,"Suitcase",1,"Earring",1,"right",FALSE,"left",FALSE,2,TRUE,FALSE,FALSE,"right","middle",FALSE,FALSE,TRUE,"left","right",4039.60000002384,13144.6000000238,TRUE
"637fcee60a8378c1c3a65898","Necklace",2,"Mailbox",4,"Hands",4,"right",FALSE,"right",FALSE,2,FALSE,TRUE,FALSE,"middle","middle",TRUE,FALSE,FALSE,"right","right",6229.39999997616,4758.19999998808,FALSE
"63f77a5dde1ea03305e119e0","Hat",3,"Candy",4,"Balls",4,"left",FALSE,"middle",TRUE,2,FALSE,FALSE,TRUE,"middle","right",FALSE,FALSE,TRUE,"middle","left",2046.30000000075,1698.80000000075,FALSE
"5fbf90f025a567296d943c7e","Newspaper",1,"Shorts",3,"Ant",3,"right",FALSE,"right",TRUE,2,TRUE,FALSE,FALSE,"right","middle",TRUE,FALSE,FALSE,"right","right",2519.59999990463,3343.5,FALSE
"636d6ce3fb3683ff33f9e514","String",3,"Pillow",3,"Pajamas",3,"left",FALSE,"right",TRUE,2,FALSE,FALSE,TRUE,"right","middle",FALSE,FALSE,TRUE,"right","left",3093,3996,FALSE
"5af2a03697a14300017d2ba4","Goal",4,"Flashlight",2,"Shorts",2,"right",FALSE,"left",TRUE,2,FALSE,FALSE,TRUE,"left","middle",FALSE,FALSE,TRUE,"left","right",5364,5972,FALSE
"60e3a25e8be835f754795d93","Cable",2,"Fingernail",3,"Jump rope",3,"right",FALSE,"left",FALSE,2,TRUE,FALSE,FALSE,"right","left",FALSE,TRUE,FALSE,"left","right",2298.2000002861,2877.39999961853,TRUE
"66b5172c8f0bd3b23ce66c22","Button",3,"Candle",2,"Camera",2,"middle",FALSE,"middle",FALSE,3,FALSE,FALSE,TRUE,"left","right",TRUE,FALSE,FALSE,"middle","middle",1865.29999995232,2665.79999995232,FALSE
"5ba60abd9629a90001b36fdc","Owl",3,"Vacuum",5,"Bag",5,"middle",FALSE,"right",TRUE,3,FALSE,FALSE,TRUE,"right","left",FALSE,FALSE,TRUE,"right","middle",6888.39999997616,3490.29999995232,FALSE
"65dc99d0191a135ab835bf69","Car",2,"Fingernail",4,"Bell",4,"middle",FALSE,"middle",FALSE,3,FALSE,FALSE,TRUE,"left","right",TRUE,FALSE,FALSE,"middle","middle",2026,1545.70000000298,FALSE
"60fe7bf61c7567f5cca9ade6","Notebook",5,"Teapot",1,"Waffle",1,"middle",FALSE,"left",TRUE,3,FALSE,FALSE,TRUE,"left","right",FALSE,FALSE,TRUE,"left","middle",2120.39999999106,1127,TRUE
"5c9d88bb2b3c77001744ec1c","Keys",1,"Play dough",5,"Feet",5,"right",FALSE,"right",TRUE,3,TRUE,FALSE,FALSE,"right","middle",TRUE,FALSE,FALSE,"right","right",4062.69999999925,4839.30000000075,FALSE
"5e283f576dbb560114ac7714","Juice",3,"Toilet",5,"Radio",5,"middle",FALSE,"left",TRUE,3,FALSE,TRUE,FALSE,"left","left",FALSE,TRUE,FALSE,"left","middle",3014.39999985695,6903.40000009537,FALSE
"62e02b1ed5b0fbc1b1dc09e7","Ant",2,"Corn",4,"Slide",4,"middle",FALSE,"middle",TRUE,3,TRUE,FALSE,FALSE,"middle","right",TRUE,FALSE,FALSE,"middle","middle",1855.19999992847,1567.5,FALSE
"5ecf9b46617a9b3dd56b3fe3","Hands",3,"Flashlight",3,"Chopsticks",3,"middle",FALSE,"middle",TRUE,3,TRUE,FALSE,FALSE,"middle","right",TRUE,FALSE,FALSE,"middle","middle",2606.5,6469.5,TRUE
"590b3401182caf0001ab5801","Dress",1,"Radio",2,"Stars",2,"right",FALSE,"right",FALSE,3,FALSE,TRUE,FALSE,"left","left",TRUE,FALSE,FALSE,"right","right",4759.09999996424,2056.90000003576,FALSE
"65c11389b0d2ba8e63cb8b22","Nest",2,"Cookies",5,"Monkey",5,"middle",FALSE,"right",TRUE,3,FALSE,FALSE,TRUE,"right","left",FALSE,FALSE,TRUE,"right","middle",2737.09999990463,2217.5,FALSE
"5d15160539eeea001683830c","Dress",1,"Scissors",3,"Spider",3,"middle",FALSE,"right",TRUE,3,FALSE,FALSE,TRUE,"right","left",FALSE,FALSE,TRUE,"right","middle",3566.30000000075,5037.89999999851,FALSE
"6620b6a209127dafd5b2dfb9","Milk",4,"Vacuum",1,"Tie",1,"right",FALSE,"left",TRUE,3,FALSE,FALSE,TRUE,"left","middle",FALSE,FALSE,TRUE,"left","right",2938.60000002384,3149.40000003576,FALSE
"56c65a5a305eaa0005f2a634","Elephant",5,"Candle",2,"Ghost",2,"left",FALSE,"middle",FALSE,3,FALSE,FALSE,TRUE,"right","middle",FALSE,TRUE,FALSE,"middle","left",2840.60000000056,1245.5,FALSE
"59fb1518b47dfc0001b6659b","CD",2,"Rock",4,"Bow",4,"right",FALSE,"left",TRUE,3,FALSE,FALSE,TRUE,"left","middle",FALSE,FALSE,TRUE,"left","right",457,2255,FALSE
"602c0fc2eff74b4748e9b41e","Vacuum",5,"Bottle",2,"Tape",2,"middle",FALSE,"left",TRUE,3,FALSE,TRUE,FALSE,"left","left",FALSE,TRUE,FALSE,"left","middle",2541,2193,FALSE
"5bcc98d1db645700015222b5","Tissue",3,"Blocks",4,"Refrigerator",4,"left",FALSE,"right",FALSE,3,FALSE,FALSE,TRUE,"middle","right",FALSE,TRUE,FALSE,"right","left",2942.70000000112,2057.5,FALSE
"6773e6e6b205d22a2e097735","Ear",1,"Plate",3,"Arm",3,"right",FALSE,"right",FALSE,3,FALSE,FALSE,TRUE,"middle","left",TRUE,FALSE,FALSE,"right","right",1741.40000009537,2085.70000004768,FALSE
"67505c42a18c872bab88ed42","Bug",3,"Sun",2,"Radio",2,"right",FALSE,"right",TRUE,3,TRUE,FALSE,FALSE,"right","left",TRUE,FALSE,FALSE,"right","right",3824.39999997616,2047.5,FALSE
"62a1e021702679d27813a3e2","Iron",2,"Soup",2,"Bracelet",2,"right",FALSE,"middle",FALSE,3,TRUE,FALSE,FALSE,"right","left",FALSE,FALSE,TRUE,"middle","right",6067.5,2734.90000009537,FALSE
"639f294882a3797f77a3dd81","Coloring Book",4,"Dog",2,"Cherry",2,"right",TRUE,"right",TRUE,3,TRUE,FALSE,FALSE,"right","left",TRUE,FALSE,FALSE,"right","right",2295,3120.10000002384,FALSE
"654bc148c95bca00d541ec33","Train",2,"Umbrella",1,"Balloons",1,"middle",FALSE,"middle",FALSE,3,FALSE,TRUE,FALSE,"left","left",TRUE,FALSE,FALSE,"middle","middle",3436.19999992847,3101.30000007153,TRUE
"5d23460ad4c57900192b129c","Feet",4,"Baby",1,"Ant",1,"right",FALSE,"right",TRUE,3,TRUE,FALSE,FALSE,"right","left",TRUE,FALSE,FALSE,"right","right",3400,2084.69999999925,FALSE
"67673cda94b4d0cf1a6a7382","Stairs",2,"Cupcake",1,"Button",1,"left",FALSE,"left",TRUE,3,TRUE,FALSE,FALSE,"left","middle",TRUE,FALSE,FALSE,"left","left",2781.70000004768,2348.79999995232,FALSE
"5c4f5967aac8be0001716a65","Pig",2,"Keys",4,"Heart",4,"middle",FALSE,"right",FALSE,3,FALSE,TRUE,FALSE,"left","left",FALSE,FALSE,TRUE,"right","middle",3155.5,1128.79999995232,FALSE
"67758c9a30d6819221153393","Oranges",1,"Whistle",1,"Sun",1,"left",TRUE,"left",TRUE,3,TRUE,FALSE,FALSE,"left","right",TRUE,FALSE,FALSE,"left","left",2630,2588.20000000298,FALSE
"66b37344796f45313433abc8","Snow",4,"Mouse",2,"Apples",2,"right",TRUE,"right",TRUE,3,TRUE,FALSE,FALSE,"right","middle",TRUE,FALSE,FALSE,"right","right",2074.39999999851,1875.19999999925,FALSE
"632096b5574155e8727c50cc","Paper",1,"Battery",2,"Horse",2,"middle",FALSE,"middle",FALSE,3,FALSE,TRUE,FALSE,"right","right",TRUE,FALSE,FALSE,"middle","middle",2163.20000000112,2524.70000000112,FALSE
"66dcc0e54f44ccecf2730c76","Hamburger",3,"Pig",2,"Knee",2,"right",FALSE,"right",TRUE,3,TRUE,FALSE,FALSE,"right","left",TRUE,FALSE,FALSE,"right","right",3382.20000000019,2689.79999999981,TRUE
"60fac7ec133b6bf250d6d668","Chopsticks",5,"Backpack",5,"Yogurt",5,"middle",FALSE,"right",FALSE,3,TRUE,FALSE,FALSE,"middle","right",FALSE,TRUE,FALSE,"right","middle",2963.80000001192,2649,FALSE
"5e459f61418f610891628564","Wheel",1,"Snake",5,"Butter",5,"middle",FALSE,"middle",FALSE,3,FALSE,FALSE,TRUE,"left","right",TRUE,FALSE,FALSE,"middle","middle",2046.39999985695,2718.20000004768,FALSE
"5e89ec793c01b3685a00bb12","Lunch",4,"Bed",5,"Refrigerator",5,"right",FALSE,"middle",TRUE,3,FALSE,FALSE,TRUE,"middle","left",FALSE,FALSE,TRUE,"middle","right",2146.90000003576,3840.30000001192,FALSE
"631d197eba06364cbea7fab2","Peas",4,"Fire",2,"Candle",2,"left",FALSE,"left",TRUE,3,TRUE,FALSE,FALSE,"left","middle",TRUE,FALSE,FALSE,"left","left",3097.90000009537,2101.29999995232,TRUE
"66fd3f6c93c24ecc119be354","Spaghetti",2,"Bear",5,"Rain",5,"middle",FALSE,"middle",FALSE,3,FALSE,TRUE,FALSE,"left","left",TRUE,FALSE,FALSE,"middle","middle",3365,600,TRUE
"5af1a4bc6e136b0001411714","Feet",1,"Paper",5,"Rice",5,"right",FALSE,"right",FALSE,3,FALSE,FALSE,TRUE,"left","middle",TRUE,FALSE,FALSE,"right","right",2815.70000000298,1671.69999999925,FALSE
"60ed501279c68ea1a313d0aa","Helicopter",5,"Keys",5,"Scooter",5,"middle",FALSE,"middle",TRUE,3,TRUE,FALSE,FALSE,"middle","right",TRUE,FALSE,FALSE,"middle","middle",2730.60000038147,2759.69999885559,FALSE
"5bf2f728bd9f150001f6cc42","Gorilla",3,"Movie",4,"Slide",4,"right",FALSE,"left",TRUE,3,FALSE,FALSE,TRUE,"left","middle",FALSE,FALSE,TRUE,"left","right",2956.20000000007,1663.19999999995,FALSE
"59a734ce0c87a000017481ed","Elephant",4,"Jump rope",4,"Pot",4,"middle",FALSE,"right",FALSE,3,TRUE,FALSE,FALSE,"middle","right",FALSE,TRUE,FALSE,"right","middle",4046.30000001192,2725.90000003576,FALSE
"615e420a23219efe3427a367","Fence",1,"Toothpaste",5,"Shoulders",5,"left",FALSE,"right",TRUE,3,FALSE,TRUE,FALSE,"right","right",FALSE,TRUE,FALSE,"right","left",2907.60000014305,4510.09999990463,FALSE
"66b244a2f436437d3e109bbe","Pretzel",4,"Swimsuit",1,"Swing",1,"left",FALSE,"left",TRUE,3,TRUE,FALSE,FALSE,"left","right",TRUE,FALSE,FALSE,"left","left",4520.79999995232,1859.70000004768,TRUE
"5f1b05a8703c380d1393bb27","Teeth",1,"Radio",1,"Boat",1,"middle",FALSE,"right",TRUE,3,FALSE,TRUE,FALSE,"right","right",FALSE,TRUE,FALSE,"right","middle",2753,4611,FALSE
"6684497541f835bd67a199b2","Spaghetti",1,"Shoes",1,"TV",1,"right",FALSE,"right",TRUE,3,TRUE,FALSE,FALSE,"right","left",TRUE,FALSE,FALSE,"right","right",1299.40000000596,1617.29999998212,FALSE
"5eeddefa177a7322144cbc5e","Square",1,"Blanket",1,"Oranges",1,"right",TRUE,"right",TRUE,3,TRUE,FALSE,FALSE,"right","middle",TRUE,FALSE,FALSE,"right","right",2351,2320,FALSE
"63ee9abfa262bea95766dd9c","Pudding",2,"Suitcase",5,"Umbrella",5,"right",FALSE,"middle",FALSE,3,FALSE,TRUE,FALSE,"left","left",FALSE,FALSE,TRUE,"middle","right",2223,4711.69999999995,TRUE
"66cfab152c56aa0472529001","Popcorn",5,"Bubbles",2,"Bread",2,"right",FALSE,"right",FALSE,3,FALSE,FALSE,TRUE,"left","middle",TRUE,FALSE,FALSE,"right","right",1924.29999995232,3839.20000004768,TRUE
"6571fd9d691befe21fa61d18","Balloons",3,"Bag",2,"Cake",2,"middle",FALSE,"right",TRUE,3,FALSE,FALSE,TRUE,"right","left",FALSE,FALSE,TRUE,"right","middle",3614.5,2374.60000002384,FALSE
"66312361cf5d4099e1330532","Fire",2,"Purse",3,"Straw",3,"left",FALSE,"right",TRUE,3,FALSE,TRUE,FALSE,"right","right",FALSE,TRUE,FALSE,"right","left",2666.79999995232,579.700000047684,FALSE
"6722ea20fb84b196f0a649b6","Sofa",3,"Crown",5,"Monkey",5,"right",FALSE,"right",TRUE,3,TRUE,FALSE,FALSE,"right","left",TRUE,FALSE,FALSE,"right","right",2232.5,6106.40000003576,FALSE
"5ddce9f0f85b50c4fc1515a4","Potatoes",1,"Bike",3,"Feather",3,"left",FALSE,"left",TRUE,3,TRUE,FALSE,FALSE,"left","right",TRUE,FALSE,FALSE,"left","left",2302,4119.70000000019,FALSE
"5c3bdbf548ad2900017fac31","Glasses",5,"Butter",4,"Cheese",4,"right",FALSE,"left",TRUE,3,FALSE,FALSE,TRUE,"left","middle",FALSE,FALSE,TRUE,"left","right",2712.5,2958.79999999702,FALSE
"6844a1b95271dfc560af4709","Chopsticks",2,"Leaf",3,"Refrigerator",3,"middle",FALSE,"left",FALSE,3,TRUE,FALSE,FALSE,"middle","left",FALSE,TRUE,FALSE,"left","middle",1353.39999997616,890.600000023842,FALSE
"616ef680ab8ca318a227f5ec","Keys",1,"Snake",1,"Towels",1,"right",FALSE,"middle",TRUE,3,FALSE,TRUE,FALSE,"middle","middle",FALSE,TRUE,FALSE,"middle","right",1672.80000007153,3228.29999995232,FALSE
"66d9cd06e207a93377f7820e","Cloud",1,"Ladder",1,"Fence",1,"middle",FALSE,"right",FALSE,3,FALSE,TRUE,FALSE,"left","left",FALSE,FALSE,TRUE,"right","middle",4298.70000004768,2839.60000002384,TRUE
"5962a5b29955ee00015bce98","Keys",5,"Bridge",5,"Spaghetti",5,"right",FALSE,"left",TRUE,3,FALSE,FALSE,TRUE,"left","middle",FALSE,FALSE,TRUE,"left","right",2980.20000000298,2682,TRUE
"641384b3dffcf39ec42d3c23","Rice",3,"Sink",5,"Ghost",5,"left",FALSE,"middle",TRUE,3,FALSE,FALSE,TRUE,"middle","right",FALSE,FALSE,TRUE,"middle","left",3315,3265.19999992847,FALSE
"59692d61355b45000106c592","Marker",3,"Owl",1,"Swimsuit",1,"right",FALSE,"left",TRUE,3,FALSE,FALSE,TRUE,"left","middle",FALSE,FALSE,TRUE,"left","right",1919.79999995232,2375.80000001192,FALSE
"5dd05d80b2204f1487f7812c","Eyes",1,"Teeth",4,"Soup",4,"left",FALSE,"middle",FALSE,3,FALSE,FALSE,TRUE,"right","middle",FALSE,TRUE,FALSE,"middle","left",1830.5,2666.80000000075,FALSE
"6321d9c78e8e3c04f82a0ea0","Bone",2,"Table",3,"Slinky",3,"right",FALSE,"right",TRUE,3,TRUE,FALSE,FALSE,"right","left",TRUE,FALSE,FALSE,"right","right",1008.10000002384,1189.79999995232,FALSE
"632d189d6b8f03d0d3db4c48","Notebook",5,"Hands",2,"Teapot",2,"middle",FALSE,"left",FALSE,3,FALSE,TRUE,FALSE,"right","right",FALSE,FALSE,TRUE,"left","middle",1952,3988.5,TRUE
"63b3377ca1ccdfc7cc567503","Car",4,"Crayons",2,"Slinky",2,"middle",FALSE,"left",TRUE,3,FALSE,TRUE,FALSE,"left","left",FALSE,TRUE,FALSE,"left","middle",5353,2855,TRUE
"6678813aec86d687a654dedb","Coloring Book",5,"Cherry",1,"Soup",1,"middle",TRUE,"left",FALSE,3,TRUE,FALSE,FALSE,"middle","left",FALSE,TRUE,FALSE,"left","middle",2715.7999997139,5757,FALSE
"55cce6ea34e90600058d1e6d","Glasses",2,"Button",1,"Stool",1,"left",FALSE,"right",TRUE,3,FALSE,FALSE,TRUE,"right","middle",FALSE,FALSE,TRUE,"right","left",12082,1049,FALSE
"6658bba1a51a037d25bb677e","Octopus",1,"Jump rope",3,"Toothpaste",3,"right",FALSE,"middle",TRUE,3,FALSE,FALSE,TRUE,"middle","left",FALSE,FALSE,TRUE,"middle","right",2640.59999999404,2858.09999999404,TRUE
"60f5df9db9380d875c320307","Frog",4,"Pillow",2,"Giraffe",2,"middle",FALSE,"middle",FALSE,3,FALSE,TRUE,FALSE,"left","left",TRUE,FALSE,FALSE,"middle","middle",7571.89999997616,6199.90000003576,FALSE
"63d5b810f3dbbd11e7e65870","Mouth",4,"Rock",5,"Crackers",5,"right",FALSE,"right",TRUE,3,TRUE,FALSE,FALSE,"right","middle",TRUE,FALSE,FALSE,"right","right",4728,3515.39999997616,FALSE
"66d1fdd400acfdbc181f41e0","Jacket",2,"Box",2,"Cable",2,"right",FALSE,"middle",TRUE,3,FALSE,TRUE,FALSE,"middle","middle",FALSE,TRUE,FALSE,"middle","right",3182.5,4081.69999980927,FALSE
"67b636c4ea38855cbb08ffe3","Towels",5,"Drum",2,"Vacuum",2,"right",FALSE,"right",TRUE,3,TRUE,FALSE,FALSE,"right","middle",TRUE,FALSE,FALSE,"right","right",7536.20000004768,3997.89999997616,FALSE
"5e1b795dc799223a3b447ada","Elephant",1,"Pizza",3,"Soda",3,"middle",FALSE,"middle",TRUE,3,TRUE,FALSE,FALSE,"middle","left",TRUE,FALSE,FALSE,"middle","middle",2409.89999999851,1813.29999999702,FALSE
"5c5cad3e4ee81200018eafe2","Chicken",5,"Camera",2,"Zebra",2,"left",FALSE,"left",TRUE,3,TRUE,FALSE,FALSE,"left","middle",TRUE,FALSE,FALSE,"left","left",1256,1915.39999997616,FALSE
"5bc5be2572df5f00014479f9","Backpack",5,"Blocks",4,"Sandals",4,"middle",FALSE,"middle",TRUE,3,TRUE,FALSE,FALSE,"middle","left",TRUE,FALSE,FALSE,"middle","middle",3611.59999999963,2527.30000000075,FALSE
"5f8f436e4676a71879786b95","Tummy",3,"Sheep",5,"Boat",5,"left",FALSE,"middle",FALSE,3,TRUE,FALSE,FALSE,"left","right",FALSE,FALSE,TRUE,"middle","left",2865,1649,FALSE
"669053bbebafdd430e770142","Ankle",4,"Pen",5,"Bed",5,"middle",FALSE,"right",FALSE,3,TRUE,FALSE,FALSE,"middle","left",FALSE,FALSE,TRUE,"right","middle",3221.89999961853,2679.39999961853,FALSE
"677419f93048c66d62d2bf87","Pajamas",5,"Cheese",1,"Blanket",1,"right",FALSE,"left",TRUE,3,FALSE,FALSE,TRUE,"left","middle",FALSE,FALSE,TRUE,"left","right",4022,1735,FALSE
"574aff1b5bef980007af2745","Pillow",3,"Washcloth",1,"Pirate",1,"right",FALSE,"right",TRUE,3,TRUE,FALSE,FALSE,"right","middle",TRUE,FALSE,FALSE,"right","right",4244,3099,FALSE
"58404fd8ad98e40001ce915f","Airplane",2,"Balls",3,"String",3,"middle",FALSE,"middle",FALSE,3,FALSE,FALSE,TRUE,"right","left",TRUE,FALSE,FALSE,"middle","middle",3335.69999999925,5742.60000000149,FALSE
"5de8887aa2db898017debf1a","Pretzel",4,"Sandwich",5,"Zebra",5,"left",FALSE,"middle",TRUE,3,FALSE,FALSE,TRUE,"middle","right",FALSE,FALSE,TRUE,"middle","left",4999,2915.30000001192,FALSE
"59d949cf8fd07a000184247e","Ring",2,"Stamps",3,"Bat",3,"left",FALSE,"left",FALSE,3,FALSE,TRUE,FALSE,"middle","middle",TRUE,FALSE,FALSE,"left","left",2489.30000007153,1296.30000007153,FALSE
"662945728093113a43ab8077","Socks",4,"Pie",1,"House",1,"right",FALSE,"middle",TRUE,3,FALSE,FALSE,TRUE,"middle","left",FALSE,FALSE,TRUE,"middle","right",2910,1760.5,TRUE
"676058418c08c71e4bb7cbd1","Pretzel",3,"Peas",3,"Marker",3,"right",FALSE,"middle",TRUE,3,FALSE,TRUE,FALSE,"middle","middle",FALSE,TRUE,FALSE,"middle","right",2019.60000014305,1750.70000004768,TRUE
"6643d22289210a4edf21e84d","Bubbles",3,"Play dough",4,"Diaper",4,"left",FALSE,"middle",TRUE,3,FALSE,TRUE,FALSE,"middle","middle",FALSE,TRUE,FALSE,"middle","left",1824.70000004768,1863.39999985695,FALSE
"58954e2dc88c680001dd4b7e","Toothbrush",2,"Shoes",3,"Bat",3,"right",FALSE,"right",FALSE,3,FALSE,TRUE,FALSE,"middle","middle",TRUE,FALSE,FALSE,"right","right",2284.10000000149,1283.80000000075,TRUE
"5b757a03976ecb0001b1168f","CD",1,"Bead",2,"Car",2,"right",FALSE,"right",TRUE,3,TRUE,FALSE,FALSE,"right","middle",TRUE,FALSE,FALSE,"right","right",4975.20000004768,2388.70000004768,FALSE
"681b781064a5701a5ceee3bc","Cable",3,"Octopus",1,"Rabbit",1,"left",FALSE,"right",TRUE,3,FALSE,FALSE,TRUE,"right","middle",FALSE,FALSE,TRUE,"right","left",2087.60000014305,2989.5,TRUE
"6716c6700f376dc7f534af9d","Eyes",2,"Puzzles",4,"Grapes",4,"right",TRUE,"right",TRUE,3,TRUE,FALSE,FALSE,"right","middle",TRUE,FALSE,FALSE,"right","right",1666.09999990463,4449.79999995232,FALSE
"671a3ac3dada5efe6d439698","Jacket",1,"Spoon",3,"Rice",3,"left",FALSE,"left",FALSE,3,FALSE,FALSE,TRUE,"right","middle",TRUE,FALSE,FALSE,"left","left",3694.5,2460.2000002861,FALSE
"676b89007874c8eace113276","Horse",3,"Chalk",4,"Shorts",4,"right",FALSE,"middle",TRUE,3,FALSE,TRUE,FALSE,"middle","middle",FALSE,TRUE,FALSE,"middle","right",3646,3823,FALSE
"6825af939111d286546fdde6","Taco",5,"Snake",1,"Jacket",1,"middle",FALSE,"left",TRUE,3,FALSE,FALSE,TRUE,"left","right",FALSE,FALSE,TRUE,"left","middle",2416.5,2637.09999990463,FALSE
"67164c92298409e37c670b3d","Microphone",5,"Fire",5,"Rope",5,"right",FALSE,"middle",TRUE,3,FALSE,FALSE,TRUE,"middle","left",FALSE,FALSE,TRUE,"middle","right",2561.39999999851,2567.5,FALSE
"682b3f63d0e2c4eff64fe664","Blocks",4,"Refrigerator",5,"Scooter",5,"right",FALSE,"middle",FALSE,3,FALSE,TRUE,FALSE,"left","left",FALSE,FALSE,TRUE,"middle","right",5148.09999999404,862.700000017881,TRUE
"5d3695969749cc00165c222f","Pool",5,"Peas",3,"Bone",3,"middle",FALSE,"left",TRUE,3,FALSE,FALSE,TRUE,"left","right",FALSE,FALSE,TRUE,"left","middle",2745.39999997616,1132.70000004768,TRUE
"664521e03117b782ed4fff45","Door",1,"Towels",3,"Truck",3,"middle",FALSE,"right",TRUE,3,FALSE,FALSE,TRUE,"right","left",FALSE,FALSE,TRUE,"right","middle",3261,1831.80000000447,FALSE
"6773dea609f77d473900997a","Clock",4,"Crayons",2,"Movie",2,"left",FALSE,"left",FALSE,3,FALSE,TRUE,FALSE,"middle","middle",TRUE,FALSE,FALSE,"left","left",4246.10000002384,4326.40000003576,TRUE
"637fcee60a8378c1c3a65898","Head",3,"Window",4,"Pencil",4,"left",FALSE,"middle",FALSE,3,FALSE,FALSE,TRUE,"right","middle",FALSE,TRUE,FALSE,"middle","left",4812.80000001192,2073.5,FALSE
"63f77a5dde1ea03305e119e0","Straw",3,"Crown",1,"Play dough",1,"left",FALSE,"middle",FALSE,3,TRUE,FALSE,FALSE,"left","right",FALSE,FALSE,TRUE,"middle","left",2516.39999999851,2299.5,FALSE
"5fbf90f025a567296d943c7e","String",5,"Bead",1,"Bus",1,"right",FALSE,"left",TRUE,3,FALSE,FALSE,TRUE,"left","middle",FALSE,FALSE,TRUE,"left","right",3637.70000004768,3011.39999985695,FALSE
"636d6ce3fb3683ff33f9e514","Teeth",3,"Candle",4,"Notebook",4,"left",FALSE,"middle",TRUE,3,FALSE,TRUE,FALSE,"middle","middle",FALSE,TRUE,FALSE,"middle","left",4283,2977,FALSE
"5af2a03697a14300017d2ba4","Clown",5,"Lizard",5,"Towels",5,"right",FALSE,"middle",TRUE,3,FALSE,TRUE,FALSE,"middle","middle",FALSE,TRUE,FALSE,"middle","right",5892,2752,FALSE
"60e3a25e8be835f754795d93","Tractor",2,"Camera",3,"Bell",3,"right",FALSE,"right",TRUE,3,TRUE,FALSE,FALSE,"right","left",TRUE,FALSE,FALSE,"right","right",1474.09999990463,1929.59999990463,TRUE
"66b5172c8f0bd3b23ce66c22","Pie",2,"Broom",2,"Helicopter",2,"middle",FALSE,"right",TRUE,4,FALSE,TRUE,FALSE,"right","right",FALSE,TRUE,FALSE,"right","middle",1296.60000002384,2683.10000002384,FALSE
"5ba60abd9629a90001b36fdc","Sand",5,"Horse",2,"Gorilla",2,"right",FALSE,"right",TRUE,4,TRUE,FALSE,FALSE,"right","left",TRUE,FALSE,FALSE,"right","right",2668,3172.69999998808,FALSE
"65dc99d0191a135ab835bf69","Brush",5,"Ring",1,"Dolls",1,"left",FALSE,"left",TRUE,4,TRUE,FALSE,FALSE,"left","right",TRUE,FALSE,FALSE,"left","left",1421.09999999776,1947.69999999925,FALSE
"60fe7bf61c7567f5cca9ade6","Net",1,"Pool",3,"Fork",3,"middle",FALSE,"right",TRUE,4,FALSE,TRUE,FALSE,"right","right",FALSE,TRUE,FALSE,"right","middle",1851.39999999106,2307.69999998808,TRUE
"5c9d88bb2b3c77001744ec1c","Fingers",2,"Leaf",1,"Skateboard",1,"right",FALSE,"right",TRUE,4,TRUE,FALSE,FALSE,"right","middle",TRUE,FALSE,FALSE,"right","right",3150,2335.5,FALSE
"5e283f576dbb560114ac7714","Carrots",4,"Boat",3,"Turtle",3,"right",FALSE,"middle",TRUE,4,FALSE,FALSE,TRUE,"middle","left",FALSE,FALSE,TRUE,"middle","right",6571.70000004768,8935.80000019073,FALSE
"62e02b1ed5b0fbc1b1dc09e7","Shoulders",2,"Zipper",5,"Clock",5,"left",FALSE,"middle",TRUE,4,FALSE,FALSE,TRUE,"middle","right",FALSE,FALSE,TRUE,"middle","left",2527,1311.90000009537,FALSE
"5ecf9b46617a9b3dd56b3fe3","Feather",5,"Books",2,"Pool",2,"middle",FALSE,"left",FALSE,4,TRUE,FALSE,FALSE,"middle","right",FALSE,FALSE,TRUE,"left","middle",2298.19999992847,2159.60000002384,TRUE
"590b3401182caf0001ab5801","Peas",2,"Box",3,"Strawberries",3,"right",TRUE,"right",TRUE,4,TRUE,FALSE,FALSE,"right","left",TRUE,FALSE,FALSE,"right","right",2541.69999998808,1065.30000001192,FALSE
"65c11389b0d2ba8e63cb8b22","Snake",2,"Newspaper",5,"String",5,"middle",FALSE,"middle",FALSE,4,FALSE,FALSE,TRUE,"right","left",TRUE,FALSE,FALSE,"middle","middle",1853.60000014305,11643.1000001431,FALSE
"5d15160539eeea001683830c","Glue",2,"Watch",2,"Snake",2,"right",FALSE,"right",TRUE,4,TRUE,FALSE,FALSE,"right","left",TRUE,FALSE,FALSE,"right","right",3083.40000000037,2833.69999999925,FALSE
"6620b6a209127dafd5b2dfb9","Elbow",3,"Hamburger",3,"Chips",3,"left",FALSE,"left",FALSE,4,FALSE,TRUE,FALSE,"middle","middle",TRUE,FALSE,FALSE,"left","left",4603.60000002384,2657.89999997616,FALSE
"56c65a5a305eaa0005f2a634","Rice",1,"Flashlight",4,"Pear",4,"right",TRUE,"middle",TRUE,4,FALSE,TRUE,FALSE,"middle","middle",FALSE,TRUE,FALSE,"middle","right",1202.90000000037,907.599999999628,FALSE
"59fb1518b47dfc0001b6659b","Fire",2,"Plate",2,"Ice Cream",2,"right",FALSE,"right",FALSE,4,FALSE,TRUE,FALSE,"middle","middle",TRUE,FALSE,FALSE,"right","right",926,2258,FALSE
"602c0fc2eff74b4748e9b41e","Fish",2,"Apples",4,"Rope",4,"middle",TRUE,"middle",TRUE,4,TRUE,FALSE,FALSE,"middle","left",TRUE,FALSE,FALSE,"middle","middle",1087,979,FALSE
"5bcc98d1db645700015222b5","Truck",5,"Clock",5,"Hands",5,"left",FALSE,"left",TRUE,4,TRUE,FALSE,FALSE,"left","right",TRUE,FALSE,FALSE,"left","left",2512.70000000112,3835.70000000112,FALSE
"6773e6e6b205d22a2e097735","Zebra",5,"Pillow",2,"Stairs",2,"middle",FALSE,"left",TRUE,4,FALSE,TRUE,FALSE,"left","left",FALSE,TRUE,FALSE,"left","middle",1878.5,2324.79999995232,FALSE
"67505c42a18c872bab88ed42","Blanket",5,"Pudding",2,"Towels",2,"middle",FALSE,"left",TRUE,4,FALSE,TRUE,FALSE,"left","left",FALSE,TRUE,FALSE,"left","middle",2656.69999998808,1414.30000001192,FALSE
"62a1e021702679d27813a3e2","Fire truck",4,"Refrigerator",4,"Sheep",4,"right",FALSE,"middle",FALSE,4,FALSE,TRUE,FALSE,"left","left",FALSE,FALSE,TRUE,"middle","right",3341.90000009537,2254.40000009537,FALSE
"639f294882a3797f77a3dd81","Cake",1,"Necklace",4,"Toothbrush",4,"middle",FALSE,"middle",FALSE,4,FALSE,TRUE,FALSE,"left","left",TRUE,FALSE,FALSE,"middle","middle",2190.69999992847,2975.60000002384,FALSE
"654bc148c95bca00d541ec33","Square",5,"Motorcycle",5,"Sweater",5,"right",FALSE,"middle",FALSE,4,TRUE,FALSE,FALSE,"right","left",FALSE,FALSE,TRUE,"middle","right",2861.5,1151.70000004768,TRUE
"5d23460ad4c57900192b129c","Milk",1,"Cherry",1,"Pizza",1,"middle",TRUE,"right",FALSE,4,TRUE,FALSE,FALSE,"middle","left",FALSE,FALSE,TRUE,"right","middle",1495.5,2781.39999999851,FALSE
"67673cda94b4d0cf1a6a7382","Motorcycle",2,"Skateboard",1,"Slide",1,"left",FALSE,"left",TRUE,4,TRUE,FALSE,FALSE,"left","middle",TRUE,FALSE,FALSE,"left","left",2631.69999992847,2249.70000004768,FALSE
"5c4f5967aac8be0001716a65","Tiger",2,"Sheep",2,"Grapes",2,"right",TRUE,"middle",FALSE,4,TRUE,FALSE,FALSE,"right","left",FALSE,FALSE,TRUE,"middle","right",1344,2697.39999997616,FALSE
"67758c9a30d6819221153393","Juice",5,"Balloons",2,"Dog",2,"middle",FALSE,"left",TRUE,4,FALSE,FALSE,TRUE,"left","right",FALSE,FALSE,TRUE,"left","middle",3039.20000000298,4809.10000000149,FALSE
"66b37344796f45313433abc8","Nest",5,"Dog",2,"Shirt",2,"left",FALSE,"left",TRUE,4,TRUE,FALSE,FALSE,"left","middle",TRUE,FALSE,FALSE,"left","left",1516,2255.60000000149,FALSE
"632096b5574155e8727c50cc","Elephant",5,"Table",3,"Cloud",3,"left",FALSE,"middle",TRUE,4,FALSE,FALSE,TRUE,"middle","right",FALSE,FALSE,TRUE,"middle","left",2537.19999999925,2038.70000000112,FALSE
"66dcc0e54f44ccecf2730c76","Battery",3,"Shovel",3,"Flashlight",3,"right",FALSE,"right",FALSE,4,FALSE,TRUE,FALSE,"left","left",TRUE,FALSE,FALSE,"right","right",4941.29999999981,3140,TRUE
"60fac7ec133b6bf250d6d668","Ring",3,"Stamps",2,"Towels",2,"left",FALSE,"middle",FALSE,4,TRUE,FALSE,FALSE,"left","right",FALSE,FALSE,TRUE,"middle","left",2280.60000002384,3882.19999998808,FALSE
"5e459f61418f610891628564","Window",2,"Cloud",4,"Spaghetti",4,"middle",FALSE,"middle",TRUE,4,TRUE,FALSE,FALSE,"middle","right",TRUE,FALSE,FALSE,"middle","middle",2178.40000009537,1876.10000014305,FALSE
"5e89ec793c01b3685a00bb12","Fish",1,"Pajamas",4,"Stairs",4,"middle",FALSE,"middle",TRUE,4,TRUE,FALSE,FALSE,"middle","left",TRUE,FALSE,FALSE,"middle","middle",2878.89999997616,1196.29999995232,FALSE
"631d197eba06364cbea7fab2","Zebra",3,"Moon",5,"Juice",5,"right",FALSE,"right",TRUE,4,TRUE,FALSE,FALSE,"right","middle",TRUE,FALSE,FALSE,"right","right",2514.70000004768,1905.5,TRUE
"66fd3f6c93c24ecc119be354","Fire truck",1,"Pirate",1,"Ring",1,"middle",FALSE,"right",FALSE,4,TRUE,FALSE,FALSE,"middle","left",FALSE,FALSE,TRUE,"right","middle",1788,409,TRUE
"5af1a4bc6e136b0001411714","Cereal",2,"Blanket",5,"Pajamas",5,"left",FALSE,"left",TRUE,4,TRUE,FALSE,FALSE,"left","middle",TRUE,FALSE,FALSE,"left","left",2312.69999999925,1156.90000000224,FALSE
"60ed501279c68ea1a313d0aa","Can",4,"Plate",2,"Ghost",2,"middle",FALSE,"right",TRUE,4,FALSE,TRUE,FALSE,"right","right",FALSE,TRUE,FALSE,"right","middle",2737.29999923706,2091.59999847412,FALSE
"5bf2f728bd9f150001f6cc42","Nose",2,"Hammer",1,"Hair",1,"left",FALSE,"right",TRUE,4,FALSE,FALSE,TRUE,"right","middle",FALSE,FALSE,TRUE,"right","left",3603.90000000002,2366.69999999995,FALSE
"59a734ce0c87a000017481ed","Giraffe",2,"Tractor",5,"Ice Cream",5,"middle",FALSE,"left",FALSE,4,FALSE,TRUE,FALSE,"right","right",FALSE,FALSE,TRUE,"left","middle",3809.79999995232,1878.80000001192,FALSE
"615e420a23219efe3427a367","Socks",2,"Scooter",2,"Washcloth",2,"middle",FALSE,"middle",TRUE,4,TRUE,FALSE,FALSE,"middle","right",TRUE,FALSE,FALSE,"middle","middle",3207.5,2902.10000014305,FALSE
"66b244a2f436437d3e109bbe","Tongue",2,"Lion",4,"Napkin",4,"middle",FALSE,"middle",TRUE,4,TRUE,FALSE,FALSE,"middle","right",TRUE,FALSE,FALSE,"middle","middle",4623.40000009537,1886.70000004768,TRUE
"5f1b05a8703c380d1393bb27","Envelope",5,"Eyes",4,"Chopsticks",4,"middle",FALSE,"right",TRUE,4,FALSE,TRUE,FALSE,"right","right",FALSE,TRUE,FALSE,"right","middle",3458,2260,FALSE
"6684497541f835bd67a199b2","Window",3,"Stairs",4,"Iron",4,"right",FALSE,"right",TRUE,4,TRUE,FALSE,FALSE,"right","left",TRUE,FALSE,FALSE,"right","right",1259.30000001192,1399.80000001192,FALSE
"5eeddefa177a7322144cbc5e","Shirt",3,"Turtle",1,"Balls",1,"left",FALSE,"left",TRUE,4,TRUE,FALSE,FALSE,"left","middle",TRUE,FALSE,FALSE,"left","left",5184,3145.29999999702,FALSE
"63ee9abfa262bea95766dd9c","Watch",3,"Pear",5,"Fire truck",5,"middle",TRUE,"middle",TRUE,4,TRUE,FALSE,FALSE,"middle","left",TRUE,FALSE,FALSE,"middle","middle",1246.79999999993,1055.30000000005,TRUE
"66cfab152c56aa0472529001","Fence",4,"Slinky",4,"Giraffe",4,"right",FALSE,"left",FALSE,4,FALSE,TRUE,FALSE,"middle","middle",FALSE,FALSE,TRUE,"left","right",2476.39999997616,3366.30000007153,TRUE
"6571fd9d691befe21fa61d18","Helicopter",1,"Paper",1,"Sandals",1,"middle",FALSE,"middle",TRUE,4,TRUE,FALSE,FALSE,"middle","left",TRUE,FALSE,FALSE,"middle","middle",6670.69999998808,9255.60000002384,FALSE
"66312361cf5d4099e1330532","Rainbow",3,"Clock",2,"Baby",2,"middle",FALSE,"right",TRUE,4,FALSE,TRUE,FALSE,"right","right",FALSE,TRUE,FALSE,"right","middle",3530.70000004768,2988.29999995232,FALSE
"6722ea20fb84b196f0a649b6","Juice",1,"Money",3,"Pan",3,"middle",FALSE,"middle",TRUE,4,TRUE,FALSE,FALSE,"middle","left",TRUE,FALSE,FALSE,"middle","middle",2675.30000001192,3156.40000003576,FALSE
"5ddce9f0f85b50c4fc1515a4","Spoon",5,"Cup",2,"Corn",2,"left",FALSE,"right",TRUE,4,FALSE,TRUE,FALSE,"right","right",FALSE,TRUE,FALSE,"right","left",1251.60000000009,1507.79999999981,FALSE
"5c3bdbf548ad2900017fac31","Monkey",3,"Microphone",5,"Corn",5,"right",FALSE,"right",FALSE,4,FALSE,TRUE,FALSE,"middle","middle",TRUE,FALSE,FALSE,"right","right",4751.19999999553,3397,FALSE
"6844a1b95271dfc560af4709","Toy",2,"Cat",5,"Ice Cream",5,"middle",FALSE,"right",TRUE,4,FALSE,FALSE,TRUE,"right","left",FALSE,FALSE,TRUE,"right","middle",1812.20000004768,994.299999952316,FALSE
"616ef680ab8ca318a227f5ec","Fingernail",1,"Skateboard",4,"Toes",4,"left",FALSE,"right",TRUE,4,FALSE,FALSE,TRUE,"right","middle",FALSE,FALSE,TRUE,"right","left",4851.79999995232,3777.69999992847,FALSE
"66d9cd06e207a93377f7820e","Curtain",1,"Spider",1,"Toothpaste",1,"right",FALSE,"right",TRUE,4,TRUE,FALSE,FALSE,"right","left",TRUE,FALSE,FALSE,"right","right",2526.89999997616,3311.89999997616,TRUE
"5962a5b29955ee00015bce98","Fly",5,"Tiger",1,"Butter",1,"left",FALSE,"right",TRUE,4,FALSE,FALSE,TRUE,"right","middle",FALSE,FALSE,TRUE,"right","left",2681.19999998808,1848.89999999106,TRUE
"641384b3dffcf39ec42d3c23","Camera",1,"Wagon",5,"Puzzles",5,"left",FALSE,"middle",FALSE,4,FALSE,TRUE,FALSE,"right","right",FALSE,FALSE,TRUE,"middle","left",3183.89999997616,4485.69999992847,FALSE
"59692d61355b45000106c592","Shorts",1,"Dresser",5,"Necklace",5,"right",FALSE,"right",TRUE,4,TRUE,FALSE,FALSE,"right","middle",TRUE,FALSE,FALSE,"right","right",1798.70000004768,1975.39999997616,FALSE
"5dd05d80b2204f1487f7812c","Swimsuit",2,"Socks",5,"Yo-yo",5,"right",FALSE,"middle",FALSE,4,TRUE,FALSE,FALSE,"right","middle",FALSE,TRUE,FALSE,"middle","right",1834,2544.70000000298,FALSE
"6321d9c78e8e3c04f82a0ea0","Barn",3,"Feather",5,"Meat",5,"middle",FALSE,"middle",FALSE,4,FALSE,FALSE,TRUE,"right","left",TRUE,FALSE,FALSE,"middle","middle",1334.39999997616,1141.70000004768,FALSE
"632d189d6b8f03d0d3db4c48","Feet",1,"Truck",1,"Soap",1,"middle",FALSE,"middle",TRUE,4,TRUE,FALSE,FALSE,"middle","right",TRUE,FALSE,FALSE,"middle","middle",2379.69999999995,1180.5,TRUE
"63b3377ca1ccdfc7cc567503","Soda",3,"Chicken",3,"Bubbles",3,"right",FALSE,"right",FALSE,4,FALSE,FALSE,TRUE,"middle","left",TRUE,FALSE,FALSE,"right","right",4875,2527,TRUE
"6678813aec86d687a654dedb","Battery",3,"Swing",4,"Brush",4,"right",FALSE,"right",TRUE,4,TRUE,FALSE,FALSE,"right","left",TRUE,FALSE,FALSE,"right","right",3537.5,2807,FALSE
"55cce6ea34e90600058d1e6d","Microphone",5,"Sandwich",2,"Sticker",2,"left",FALSE,"middle",TRUE,4,FALSE,TRUE,FALSE,"middle","middle",FALSE,TRUE,FALSE,"middle","left",2825,2692,FALSE
"6658bba1a51a037d25bb677e","Cloud",3,"Shoes",1,"Spiderweb",1,"right",FALSE,"left",TRUE,4,FALSE,TRUE,FALSE,"left","left",FALSE,TRUE,FALSE,"left","right",3912,6714.79999999702,TRUE
"60f5df9db9380d875c320307","Mouse",2,"Circle",3,"Rabbit",3,"middle",FALSE,"middle",TRUE,4,TRUE,FALSE,FALSE,"middle","left",TRUE,FALSE,FALSE,"middle","middle",3622.69999998808,6474.89999997616,FALSE
"63d5b810f3dbbd11e7e65870","Cow",5,"Motorcycle",3,"Sheep",3,"right",FALSE,"right",TRUE,4,TRUE,FALSE,FALSE,"right","middle",TRUE,FALSE,FALSE,"right","right",3837.09999990463,1734.40000009537,FALSE
"66d1fdd400acfdbc181f41e0","Bag",3,"Flower",4,"Sticker",4,"right",FALSE,"middle",TRUE,4,FALSE,TRUE,FALSE,"middle","middle",FALSE,TRUE,FALSE,"middle","right",3854.5,3457.5,FALSE
"67b636c4ea38855cbb08ffe3","Ring",5,"Cow",4,"Bottle",4,"right",FALSE,"right",FALSE,4,FALSE,TRUE,FALSE,"middle","middle",TRUE,FALSE,FALSE,"right","right",6757.79999995232,2966.89999997616,FALSE
"5e1b795dc799223a3b447ada","Bridge",4,"Fire",4,"Motorcycle",4,"middle",FALSE,"right",FALSE,4,FALSE,TRUE,FALSE,"left","left",FALSE,FALSE,TRUE,"right","middle",3078.59999999404,3584.19999999553,FALSE
"5c5cad3e4ee81200018eafe2","Toilet",1,"Whistle",5,"Pirate",5,"right",FALSE,"middle",TRUE,4,FALSE,TRUE,FALSE,"middle","middle",FALSE,TRUE,FALSE,"middle","right",1965.69999998808,3574,FALSE
"5bc5be2572df5f00014479f9","Camera",4,"Gorilla",3,"Fork",3,"right",FALSE,"right",FALSE,4,FALSE,FALSE,TRUE,"middle","left",TRUE,FALSE,FALSE,"right","right",2806.5,1959.19999999925,FALSE
"5f8f436e4676a71879786b95","String",4,"Brush",2,"Bat",2,"middle",FALSE,"left",FALSE,4,TRUE,FALSE,FALSE,"middle","right",FALSE,FALSE,TRUE,"left","middle",1714.59999999404,1699.90000000596,FALSE
"669053bbebafdd430e770142","Grass",4,"Oranges",1,"Fire",1,"middle",TRUE,"middle",TRUE,4,TRUE,FALSE,FALSE,"middle","left",TRUE,FALSE,FALSE,"middle","middle",2069.89999961853,1207.40000152588,FALSE
"677419f93048c66d62d2bf87","Rope",3,"Ant",5,"Candle",5,"left",FALSE,"middle",TRUE,4,FALSE,TRUE,FALSE,"middle","middle",FALSE,TRUE,FALSE,"middle","left",5068,1623,FALSE
"574aff1b5bef980007af2745","Leaf",1,"Fingers",5,"Ice Cream",5,"left",FALSE,"right",FALSE,4,FALSE,TRUE,FALSE,"middle","middle",FALSE,FALSE,TRUE,"right","left",3630,3615,FALSE
"58404fd8ad98e40001ce915f","Notebook",4,"Squirrel",3,"Bandaid",3,"right",FALSE,"middle",TRUE,4,FALSE,FALSE,TRUE,"middle","left",FALSE,FALSE,TRUE,"middle","right",3425.80000000075,2262.5,FALSE
"5de8887aa2db898017debf1a","Dresser",5,"Soda",1,"Triangle",1,"middle",FALSE,"middle",FALSE,4,FALSE,FALSE,TRUE,"left","right",TRUE,FALSE,FALSE,"middle","middle",3014.5,2831.40000000596,FALSE
"59d949cf8fd07a000184247e","Straw",4,"House",2,"Boots",2,"right",FALSE,"left",TRUE,4,FALSE,FALSE,TRUE,"left","middle",FALSE,FALSE,TRUE,"left","right",2304.60000002384,3073.5,FALSE
"662945728093113a43ab8077","Feet",3,"Hamburger",1,"Owl",1,"right",FALSE,"right",TRUE,4,TRUE,FALSE,FALSE,"right","left",TRUE,FALSE,FALSE,"right","right",4124.20000004768,6091.80000019073,TRUE
"676058418c08c71e4bb7cbd1","Pie",3,"Bat",3,"Bottle",3,"right",FALSE,"right",TRUE,4,TRUE,FALSE,FALSE,"right","middle",TRUE,FALSE,FALSE,"right","right",3942.5,5804.60000014305,TRUE
"6643d22289210a4edf21e84d","Mountain",4,"Sweater",3,"Lamp",3,"left",FALSE,"left",FALSE,4,FALSE,FALSE,TRUE,"right","middle",TRUE,FALSE,FALSE,"left","left",1509.20000004768,1280.89999985695,FALSE
"58954e2dc88c680001dd4b7e","Grapes",5,"Newspaper",4,"Refrigerator",4,"left",TRUE,"left",TRUE,4,TRUE,FALSE,FALSE,"left","middle",TRUE,FALSE,FALSE,"left","left",2455.80000000075,1822,TRUE
"5b757a03976ecb0001b1168f","Yo-yo",1,"Toothbrush",1,"Stamps",1,"right",FALSE,"right",TRUE,4,TRUE,FALSE,FALSE,"right","middle",TRUE,FALSE,FALSE,"right","right",4453.40000009537,2230.39999997616,FALSE
"681b781064a5701a5ceee3bc","Lizard",2,"Bike",5,"Mouth",5,"left",FALSE,"middle",TRUE,4,FALSE,TRUE,FALSE,"middle","middle",FALSE,TRUE,FALSE,"middle","left",2456.39999985695,3448.20000004768,TRUE
"6716c6700f376dc7f534af9d","Pajamas",1,"Watch",2,"Bandaid",2,"left",FALSE,"middle",TRUE,4,FALSE,TRUE,FALSE,"middle","middle",FALSE,TRUE,FALSE,"middle","left",2558.39999985695,3082.69999980927,FALSE
"671a3ac3dada5efe6d439698","Newspaper",5,"Brush",5,"Shovel",5,"right",FALSE,"right",TRUE,4,TRUE,FALSE,FALSE,"right","middle",TRUE,FALSE,FALSE,"right","right",3880.09999990463,3008.7999997139,FALSE
"676b89007874c8eace113276","Bubbles",3,"Sink",4,"Shirt",4,"left",FALSE,"left",TRUE,4,TRUE,FALSE,FALSE,"left","middle",TRUE,FALSE,FALSE,"left","left",2470,2344,FALSE
"6825af939111d286546fdde6","Princess",1,"Dolls",3,"Jump rope",3,"left",FALSE,"right",FALSE,4,FALSE,FALSE,TRUE,"middle","right",FALSE,TRUE,FALSE,"right","left",2630,1747.70000004768,FALSE
"67164c92298409e37c670b3d","Water",1,"Meat",3,"Oranges",3,"right",TRUE,"right",TRUE,4,TRUE,FALSE,FALSE,"right","left",TRUE,FALSE,FALSE,"right","right",1778.30000000075,1631.69999999925,FALSE
"682b3f63d0e2c4eff64fe664","Horse",1,"Chalk",5,"Strawberries",5,"right",TRUE,"middle",FALSE,4,TRUE,FALSE,FALSE,"right","left",FALSE,FALSE,TRUE,"middle","right",3517.5,808.59999999404,TRUE
"5d3695969749cc00165c222f","Princess",4,"Straw",2,"Radio",2,"left",FALSE,"right",TRUE,4,FALSE,TRUE,FALSE,"right","right",FALSE,TRUE,FALSE,"right","left",1642.69999998808,2549.10000002384,TRUE
"664521e03117b782ed4fff45","Elbow",4,"Ostrich",2,"Clown",2,"middle",FALSE,"left",TRUE,4,FALSE,TRUE,FALSE,"left","left",FALSE,TRUE,FALSE,"left","middle",2519.70000000298,2911.39999999851,FALSE
"6773dea609f77d473900997a","Necklace",2,"Cereal",2,"Slide",2,"right",FALSE,"right",TRUE,4,TRUE,FALSE,FALSE,"right","middle",TRUE,FALSE,FALSE,"right","right",5845,3976.19999998808,TRUE
"637fcee60a8378c1c3a65898","Cake",3,"Hoop",4,"Door",4,"right",FALSE,"middle",FALSE,4,FALSE,FALSE,TRUE,"left","middle",FALSE,TRUE,FALSE,"middle","right",2588.5,1269,FALSE
"63f77a5dde1ea03305e119e0","Sweater",5,"Comb",5,"Ghost",5,"left",FALSE,"right",FALSE,4,TRUE,FALSE,FALSE,"left","right",FALSE,TRUE,FALSE,"right","left",2130.5,2499.39999999851,FALSE
"5fbf90f025a567296d943c7e","Magazine",3,"House",1,"Cat",1,"left",FALSE,"right",TRUE,4,FALSE,FALSE,TRUE,"right","middle",FALSE,FALSE,TRUE,"right","left",2487.19999980927,3434.10000014305,FALSE
"636d6ce3fb3683ff33f9e514","Snow",5,"Pants",5,"Bean",5,"right",FALSE,"right",TRUE,4,TRUE,FALSE,FALSE,"right","middle",TRUE,FALSE,FALSE,"right","right",2723,3098,FALSE
"5af2a03697a14300017d2ba4","Dresser",3,"Fish",5,"Pants",5,"right",FALSE,"middle",TRUE,4,FALSE,TRUE,FALSE,"middle","middle",FALSE,TRUE,FALSE,"middle","right",5878,2185,FALSE
"60e3a25e8be835f754795d93","Stove",2,"Flower",5,"Books",5,"middle",FALSE,"middle",TRUE,4,TRUE,FALSE,FALSE,"middle","left",TRUE,FALSE,FALSE,"middle","middle",2041.30000019073,2601.80000019073,TRUE
"66b5172c8f0bd3b23ce66c22","Frog",1,"Door",2,"Mouth",2,"left",FALSE,"middle",TRUE,5,FALSE,FALSE,TRUE,"middle","right",FALSE,FALSE,TRUE,"middle","left",997,2249.20000004768,FALSE
"5ba60abd9629a90001b36fdc","Peas",1,"Bug",1,"Wagon",1,"right",FALSE,"right",TRUE,5,TRUE,FALSE,FALSE,"right","left",TRUE,FALSE,FALSE,"right","right",3516.80000001192,3304.89999997616,FALSE
"65dc99d0191a135ab835bf69","Juice",3,"Mouth",4,"Stove",4,"middle",FALSE,"middle",FALSE,5,FALSE,FALSE,TRUE,"left","right",TRUE,FALSE,FALSE,"middle","middle",1481,2396.60000000149,FALSE
"60fe7bf61c7567f5cca9ade6","Pants",5,"Whistle",3,"Elephant",3,"left",FALSE,"left",FALSE,5,FALSE,TRUE,FALSE,"right","right",TRUE,FALSE,FALSE,"left","left",945.70000000298,1734.10000000894,TRUE
"5c9d88bb2b3c77001744ec1c","Pants",3,"Flashlight",3,"Box",3,"left",FALSE,"middle",TRUE,5,FALSE,TRUE,FALSE,"middle","middle",FALSE,TRUE,FALSE,"middle","left",3453.5,2735.29999999702,FALSE
"5e283f576dbb560114ac7714","Balls",5,"Flashlight",3,"Tricycle",3,"middle",FALSE,"left",TRUE,5,FALSE,TRUE,FALSE,"left","left",FALSE,TRUE,FALSE,"left","middle",10437.9000000954,5263.09999990463,FALSE
"62e02b1ed5b0fbc1b1dc09e7","Sticker",2,"Bug",5,"Bandaid",5,"left",FALSE,"middle",FALSE,5,TRUE,FALSE,FALSE,"left","right",FALSE,FALSE,TRUE,"middle","left",3031.19999992847,2919.60000002384,FALSE
"5ecf9b46617a9b3dd56b3fe3","Waffle",1,"Bubbles",4,"Popcorn",4,"middle",FALSE,"middle",TRUE,5,TRUE,FALSE,FALSE,"middle","right",TRUE,FALSE,FALSE,"middle","middle",3660.29999995232,5087.60000002384,TRUE
"590b3401182caf0001ab5801","Chopsticks",4,"Tape",3,"Fly",3,"middle",FALSE,"left",TRUE,5,FALSE,TRUE,FALSE,"left","left",FALSE,TRUE,FALSE,"left","middle",5863.39999997616,1679.69999998808,FALSE
"65c11389b0d2ba8e63cb8b22","Spider",3,"Rope",3,"Magazine",3,"right",FALSE,"right",TRUE,5,TRUE,FALSE,FALSE,"right","left",TRUE,FALSE,FALSE,"right","right",3244.40000009537,1281.69999980927,FALSE
"5d15160539eeea001683830c","Bag",1,"Candy",3,"Ostrich",3,"right",FALSE,"middle",TRUE,5,FALSE,FALSE,TRUE,"middle","left",FALSE,FALSE,TRUE,"middle","right",2877.29999999888,3086.79999999888,FALSE
"6620b6a209127dafd5b2dfb9","Swing",5,"Shoes",1,"Towels",1,"right",FALSE,"left",TRUE,5,FALSE,FALSE,TRUE,"left","middle",FALSE,FALSE,TRUE,"left","right",3021.80000001192,2770,FALSE
"56c65a5a305eaa0005f2a634","Apples",2,"Hot Dog",2,"Pajamas",2,"left",TRUE,"left",TRUE,5,TRUE,FALSE,FALSE,"left","middle",TRUE,FALSE,FALSE,"left","left",2222.79999999981,1189.79999999981,FALSE
"59fb1518b47dfc0001b6659b","Meat",4,"Purse",4,"Snake",4,"left",FALSE,"right",TRUE,5,FALSE,FALSE,TRUE,"right","middle",FALSE,FALSE,TRUE,"right","left",418,1973,FALSE
"602c0fc2eff74b4748e9b41e","Bandaid",1,"Barn",2,"Dress",2,"middle",FALSE,"middle",TRUE,5,TRUE,FALSE,FALSE,"middle","left",TRUE,FALSE,FALSE,"middle","middle",2356,3450,FALSE
"5bcc98d1db645700015222b5","Paints",3,"Towels",4,"Books",4,"middle",FALSE,"middle",FALSE,5,FALSE,FALSE,TRUE,"left","right",TRUE,FALSE,FALSE,"middle","middle",2509,3141.5,FALSE
"6773e6e6b205d22a2e097735","Pie",1,"Dog",5,"Tree",5,"middle",FALSE,"right",TRUE,5,FALSE,FALSE,TRUE,"right","left",FALSE,FALSE,TRUE,"right","middle",1343.30000019073,1758.70000004768,FALSE
"67505c42a18c872bab88ed42","Pirate",4,"Tissue",2,"Wheel",2,"middle",FALSE,"left",FALSE,5,FALSE,FALSE,TRUE,"right","left",FALSE,TRUE,FALSE,"left","middle",2829.19999998808,1255.80000001192,FALSE
"62a1e021702679d27813a3e2","Fire",1,"Teapot",1,"Bus",1,"middle",FALSE,"middle",FALSE,5,FALSE,FALSE,TRUE,"right","left",TRUE,FALSE,FALSE,"middle","middle",2501.90000009537,2470.89999985695,FALSE
"639f294882a3797f77a3dd81","Head",1,"Fly",2,"Swing",2,"right",FALSE,"right",TRUE,5,TRUE,FALSE,FALSE,"right","left",TRUE,FALSE,FALSE,"right","right",2838.59999990463,2335.69999992847,FALSE
"654bc148c95bca00d541ec33","Sticker",5,"Mirror",1,"Potatoes",1,"middle",FALSE,"right",FALSE,5,FALSE,TRUE,FALSE,"left","left",FALSE,FALSE,TRUE,"right","middle",3429.5,4309.70000004768,TRUE
"5d23460ad4c57900192b129c","Mouse",3,"Necklace",4,"Hose",4,"middle",FALSE,"middle",TRUE,5,TRUE,FALSE,FALSE,"middle","left",TRUE,FALSE,FALSE,"middle","middle",1887.90000000037,4541.19999999925,FALSE
"67673cda94b4d0cf1a6a7382","Zebra",5,"Tongue",4,"Tie",4,"left",FALSE,"right",TRUE,5,FALSE,FALSE,TRUE,"right","middle",FALSE,FALSE,TRUE,"right","left",4498.39999997616,2032.10000002384,FALSE
"5c4f5967aac8be0001716a65","Whistle",1,"Strawberries",3,"Bandaid",3,"middle",TRUE,"middle",TRUE,5,TRUE,FALSE,FALSE,"middle","left",TRUE,FALSE,FALSE,"middle","middle",830.100000023842,903,FALSE
"67758c9a30d6819221153393","Fork",2,"Slide",1,"Boots",1,"middle",FALSE,"right",TRUE,5,FALSE,TRUE,FALSE,"right","right",FALSE,TRUE,FALSE,"right","middle",3147.5,2958.89999999851,FALSE
"66b37344796f45313433abc8","Tongue",4,"Hair",3,"Butterfly",3,"left",FALSE,"left",FALSE,5,FALSE,TRUE,FALSE,"middle","middle",TRUE,FALSE,FALSE,"left","left",2914.29999999702,2059.70000000298,FALSE
"632096b5574155e8727c50cc","Snake",4,"Fingernail",3,"Cow",3,"middle",FALSE,"right",TRUE,5,FALSE,TRUE,FALSE,"right","right",FALSE,TRUE,FALSE,"right","middle",1771.29999999888,2557.70000000112,FALSE
"66dcc0e54f44ccecf2730c76","Toes",1,"Puppets",1,"Kangaroo",1,"middle",FALSE,"left",FALSE,5,FALSE,FALSE,TRUE,"right","left",FALSE,TRUE,FALSE,"left","middle",1390.30000000075,3386.09999999963,TRUE
"60fac7ec133b6bf250d6d668","Lizard",4,"Pants",3,"Elephant",3,"middle",FALSE,"left",FALSE,5,TRUE,FALSE,FALSE,"middle","right",FALSE,FALSE,TRUE,"left","middle",2296.40000000596,4198.90000000596,FALSE
"5e459f61418f610891628564","Battery",2,"Helicopter",3,"Spoon",3,"left",FALSE,"middle",FALSE,5,FALSE,TRUE,FALSE,"right","right",FALSE,FALSE,TRUE,"middle","left",3776.10000014305,2253.79999995232,FALSE
"5e89ec793c01b3685a00bb12","Feather",5,"Lamp",1,"Princess",1,"middle",FALSE,"left",TRUE,5,FALSE,TRUE,FALSE,"left","left",FALSE,TRUE,FALSE,"left","middle",2195.30000001192,1713.80000001192,FALSE
"631d197eba06364cbea7fab2","Straw",4,"Frog",2,"Slinky",2,"right",FALSE,"middle",TRUE,5,FALSE,TRUE,FALSE,"middle","middle",FALSE,TRUE,FALSE,"middle","right",3474.79999995232,3443.90000009537,TRUE
"61656042f505fd7fa53e8628","Slinky",4,"Battery",3,"Suitcase",3,"middle",FALSE,"middle",FALSE,1,FALSE,TRUE,FALSE,"left","left",TRUE,FALSE,FALSE,"middle","middle",4284.59999999776,2067.39999999851,FALSE
"66fd3f6c93c24ecc119be354","Dresser",1,"Pig",5,"Peas",5,"right",FALSE,"middle",FALSE,5,TRUE,FALSE,FALSE,"right","left",FALSE,FALSE,TRUE,"middle","right",1853,397,TRUE
"5af1a4bc6e136b0001411714","Dresser",3,"Bottle",5,"Snow",5,"right",FALSE,"left",FALSE,5,TRUE,FALSE,FALSE,"right","middle",FALSE,FALSE,TRUE,"left","right",2700.60000000149,3356.5,FALSE
"60ed501279c68ea1a313d0aa","Toes",3,"Strawberries",4,"Hands",4,"middle",TRUE,"middle",TRUE,5,TRUE,FALSE,FALSE,"middle","right",TRUE,FALSE,FALSE,"middle","middle",1880,2483.79999923706,FALSE
"5bf2f728bd9f150001f6cc42","Frog",3,"Earring",1,"Chips",1,"left",FALSE,"left",TRUE,5,TRUE,FALSE,FALSE,"left","middle",TRUE,FALSE,FALSE,"left","left",1877.10000000009,2390.90000000002,FALSE
"59a734ce0c87a000017481ed","Vacuum",3,"Bracelet",2,"Iron",2,"middle",FALSE,"middle",FALSE,5,FALSE,TRUE,FALSE,"right","right",TRUE,FALSE,FALSE,"middle","middle",1733.79999995232,2111.19999998808,FALSE
"615e420a23219efe3427a367","Barn",3,"Queen",5,"Shovel",5,"middle",FALSE,"left",FALSE,5,TRUE,FALSE,FALSE,"middle","right",FALSE,FALSE,TRUE,"left","middle",3790.69999980927,3048.39999985695,FALSE
"66b244a2f436437d3e109bbe","Ant",4,"Pie",4,"Spoon",4,"middle",FALSE,"middle",TRUE,5,TRUE,FALSE,FALSE,"middle","right",TRUE,FALSE,FALSE,"middle","middle",5072.59999990463,7070.40000009537,TRUE
"5f1b05a8703c380d1393bb27","Cereal",3,"Whistle",4,"Dress",4,"middle",FALSE,"left",TRUE,5,FALSE,FALSE,TRUE,"left","right",FALSE,FALSE,TRUE,"left","middle",1674,1384,FALSE
"6684497541f835bd67a199b2","Goal",1,"Truck",4,"Soda",4,"middle",FALSE,"middle",FALSE,5,FALSE,FALSE,TRUE,"right","left",TRUE,FALSE,FALSE,"middle","middle",2342.09999999404,3051.59999999404,FALSE
"5eeddefa177a7322144cbc5e","Rabbit",3,"Skateboard",3,"Yo-yo",3,"left",FALSE,"middle",TRUE,5,FALSE,TRUE,FALSE,"middle","middle",FALSE,TRUE,FALSE,"middle","left",4741.80000000447,3605.90000000596,FALSE
"63ee9abfa262bea95766dd9c","Hanger",4,"Blanket",2,"String",2,"middle",FALSE,"right",FALSE,5,FALSE,TRUE,FALSE,"left","left",FALSE,FALSE,TRUE,"right","middle",2582.80000000005,2975.79999999981,TRUE
"66cfab152c56aa0472529001","Underwear",5,"Nose",1,"Fire",1,"left",FALSE,"right",TRUE,5,FALSE,FALSE,TRUE,"right","middle",FALSE,FALSE,TRUE,"right","left",1924.20000004768,2094.29999995232,TRUE
"6571fd9d691befe21fa61d18","Tractor",1,"Lizard",1,"Swimsuit",1,"middle",FALSE,"right",TRUE,5,FALSE,FALSE,TRUE,"right","left",FALSE,FALSE,TRUE,"right","middle",4265.10000002384,1960,FALSE
"66312361cf5d4099e1330532","Bandaid",4,"Blocks",2,"Bee",2,"left",FALSE,"right",TRUE,5,FALSE,TRUE,FALSE,"right","right",FALSE,TRUE,FALSE,"right","left",3099.40000009537,3514.79999995232,FALSE
"6722ea20fb84b196f0a649b6","Lion",5,"Tummy",5,"Fork",5,"right",FALSE,"left",FALSE,5,FALSE,FALSE,TRUE,"middle","left",FALSE,TRUE,FALSE,"left","right",4034,3698.10000002384,FALSE
"5ddce9f0f85b50c4fc1515a4","Boat",3,"Coloring Book",1,"Yogurt",1,"left",FALSE,"left",TRUE,5,TRUE,FALSE,FALSE,"left","right",TRUE,FALSE,FALSE,"left","left",3384.19999999972,2296.19999999972,FALSE
"5c3bdbf548ad2900017fac31","Cable",3,"Shampoo",1,"Nose",1,"left",FALSE,"left",TRUE,5,TRUE,FALSE,FALSE,"left","middle",TRUE,FALSE,FALSE,"left","left",2042.79999999702,1690.89999999851,FALSE
"6844a1b95271dfc560af4709","Pot",3,"Pan",2,"Cable",2,"right",FALSE,"middle",TRUE,5,FALSE,FALSE,TRUE,"middle","left",FALSE,FALSE,TRUE,"middle","right",1429.29999995232,787.5,FALSE
"5e121701dc79bd8a1a22ca99","Window",2,"Mouth",2,"Heart",2,"right",FALSE,"right",TRUE,1,TRUE,FALSE,FALSE,"right","left",TRUE,FALSE,FALSE,"right","right",9283.29999995232,5078.19999980927,FALSE
"616ef680ab8ca318a227f5ec","Queen",4,"Sofa",1,"Tummy",1,"left",FALSE,"right",FALSE,5,TRUE,FALSE,FALSE,"left","middle",FALSE,FALSE,TRUE,"right","left",4686.19999992847,536.5,FALSE
"66d9cd06e207a93377f7820e","Wagon",5,"Camera",2,"Tiger",2,"middle",FALSE,"right",TRUE,5,FALSE,FALSE,TRUE,"right","left",FALSE,FALSE,TRUE,"right","middle",4199.89999997616,2799.59999990463,TRUE
"5962a5b29955ee00015bce98","Toes",2,"Hair",4,"Duck",4,"left",FALSE,"left",TRUE,5,TRUE,FALSE,FALSE,"left","middle",TRUE,FALSE,FALSE,"left","left",3398.09999999404,1748.79999999702,TRUE
"641384b3dffcf39ec42d3c23","Stars",5,"Bug",1,"Juice",1,"left",FALSE,"right",TRUE,5,FALSE,TRUE,FALSE,"right","right",FALSE,TRUE,FALSE,"right","left",2803.89999997616,2796.5,FALSE
"59692d61355b45000106c592","Cereal",4,"Door",1,"Grass",1,"left",FALSE,"middle",TRUE,5,FALSE,TRUE,FALSE,"middle","middle",FALSE,TRUE,FALSE,"middle","left",2391.5,2919.60000002384,FALSE
"5dd05d80b2204f1487f7812c","Magazine",4,"Pants",3,"Dolls",3,"right",FALSE,"left",FALSE,5,FALSE,TRUE,FALSE,"middle","middle",FALSE,FALSE,TRUE,"left","right",2086.30000000075,2673.70000000298,FALSE
"6321d9c78e8e3c04f82a0ea0","Pirate",5,"String",1,"Sunglasses",1,"middle",FALSE,"left",TRUE,5,FALSE,TRUE,FALSE,"left","left",FALSE,TRUE,FALSE,"left","middle",1529.19999992847,1108.60000002384,FALSE
"632d189d6b8f03d0d3db4c48","Chips",3,"Goal",1,"Slinky",1,"middle",FALSE,"left",TRUE,5,FALSE,FALSE,TRUE,"left","right",FALSE,FALSE,TRUE,"left","middle",2268.30000000005,2959.89999999991,TRUE
"63b3377ca1ccdfc7cc567503","Cupcake",2,"Puppets",2,"Blocks",2,"right",FALSE,"left",FALSE,5,FALSE,FALSE,TRUE,"middle","left",FALSE,TRUE,FALSE,"left","right",4458,4302,TRUE
"6678813aec86d687a654dedb","Frog",5,"Bike",3,"Cup",3,"middle",FALSE,"left",FALSE,5,FALSE,FALSE,TRUE,"right","left",FALSE,TRUE,FALSE,"left","middle",3836,3753.2999997139,FALSE
"55cce6ea34e90600058d1e6d","Umbrella",5,"Knife",1,"Sweater",1,"right",FALSE,"middle",TRUE,5,FALSE,TRUE,FALSE,"middle","middle",FALSE,TRUE,FALSE,"middle","right",5092,2190,FALSE
"6658bba1a51a037d25bb677e","Horse",1,"Pool",3,"Stars",3,"right",FALSE,"right",TRUE,5,TRUE,FALSE,FALSE,"right","left",TRUE,FALSE,FALSE,"right","right",2218.5,1562.79999999702,TRUE
"60f5df9db9380d875c320307","Queen",1,"Tricycle",5,"Sun",5,"middle",FALSE,"right",TRUE,5,FALSE,FALSE,TRUE,"right","left",FALSE,FALSE,TRUE,"right","middle",4082.69999998808,4526.19999998808,FALSE
"63d5b810f3dbbd11e7e65870","Oranges",5,"String",1,"Ankle",1,"left",TRUE,"left",TRUE,5,TRUE,FALSE,FALSE,"left","middle",TRUE,FALSE,FALSE,"left","left",1339.10000002384,2008.10000002384,FALSE
"66d1fdd400acfdbc181f41e0","Shoulders",4,"Doughnut",4,"Monkey",4,"right",FALSE,"left",FALSE,5,FALSE,TRUE,FALSE,"middle","middle",FALSE,FALSE,TRUE,"left","right",4652.79999995232,6157.79999995232,FALSE
"67b636c4ea38855cbb08ffe3","Pajamas",1,"Napkin",5,"Swimsuit",5,"right",FALSE,"right",FALSE,5,FALSE,TRUE,FALSE,"middle","middle",TRUE,FALSE,FALSE,"right","right",5426.5,4305.70000004768,FALSE
"5e1b795dc799223a3b447ada","Zipper",4,"Boat",2,"Fly",2,"middle",FALSE,"left",TRUE,5,FALSE,TRUE,FALSE,"left","left",FALSE,TRUE,FALSE,"left","middle",3258.80000000447,2185.29999999702,FALSE
"5c5cad3e4ee81200018eafe2","Octopus",5,"Plate",2,"Bracelet",2,"left",FALSE,"left",TRUE,5,TRUE,FALSE,FALSE,"left","middle",TRUE,FALSE,FALSE,"left","left",1415.89999997616,2904,FALSE
"5bc5be2572df5f00014479f9","Mirror",3,"Boat",2,"Bread",2,"right",FALSE,"right",TRUE,5,TRUE,FALSE,FALSE,"right","left",TRUE,FALSE,FALSE,"right","right",2055,2073.19999999925,FALSE
"5f8f436e4676a71879786b95","Bowl",4,"Rope",1,"Sand",1,"left",FALSE,"middle",FALSE,5,TRUE,FALSE,FALSE,"left","right",FALSE,FALSE,TRUE,"middle","left",1931.30000001192,1682.79999999702,FALSE
"669053bbebafdd430e770142","Sink",3,"Soup",5,"Newspaper",5,"right",FALSE,"left",TRUE,5,FALSE,TRUE,FALSE,"left","left",FALSE,TRUE,FALSE,"left","right",3877.89999961853,4503.10000038147,FALSE
"677419f93048c66d62d2bf87","Straw",2,"Fire truck",1,"Toilet",1,"right",FALSE,"right",TRUE,5,TRUE,FALSE,FALSE,"right","middle",TRUE,FALSE,FALSE,"right","right",3826,1710,FALSE
"574aff1b5bef980007af2745","Nest",2,"House",2,"Helicopter",2,"right",FALSE,"middle",TRUE,5,FALSE,TRUE,FALSE,"middle","middle",FALSE,TRUE,FALSE,"middle","right",3511,3806,FALSE
"58404fd8ad98e40001ce915f","Blanket",3,"Door",2,"Purse",2,"middle",FALSE,"middle",TRUE,5,TRUE,FALSE,FALSE,"middle","left",TRUE,FALSE,FALSE,"middle","middle",4179.5,5371.89999999851,FALSE
"5de8887aa2db898017debf1a","Nest",1,"Bagel",4,"Moon",4,"middle",FALSE,"middle",TRUE,5,TRUE,FALSE,FALSE,"middle","right",TRUE,FALSE,FALSE,"middle","middle",2298.5,2233.69999998808,FALSE
"59d949cf8fd07a000184247e","Flashlight",3,"Popsicle",2,"Belt",2,"left",FALSE,"left",FALSE,5,FALSE,TRUE,FALSE,"middle","middle",TRUE,FALSE,FALSE,"left","left",1977.10000002384,2351.20000004768,FALSE
"662945728093113a43ab8077","Spaghetti",1,"Shoulders",4,"Chair",4,"right",FALSE,"middle",FALSE,5,FALSE,TRUE,FALSE,"left","left",FALSE,FALSE,TRUE,"middle","right",5079.29999995232,5239.59999990463,TRUE
"676058418c08c71e4bb7cbd1","Yo-yo",3,"Door",5,"Tricycle",5,"left",FALSE,"middle",FALSE,5,TRUE,FALSE,FALSE,"left","middle",FALSE,TRUE,FALSE,"middle","left",2228.59999990463,2632.89999985695,TRUE
"6643d22289210a4edf21e84d","Yo-yo",4,"Table",3,"Head",3,"left",FALSE,"left",TRUE,5,TRUE,FALSE,FALSE,"left","middle",TRUE,FALSE,FALSE,"left","left",1571.29999995232,1770.59999990463,FALSE
"58954e2dc88c680001dd4b7e","Wing",3,"Butter",5,"Bathtub",5,"left",FALSE,"left",FALSE,5,FALSE,TRUE,FALSE,"middle","middle",TRUE,FALSE,FALSE,"left","left",3054.69999999925,1602,TRUE
"5b757a03976ecb0001b1168f","Brush",1,"Sun",2,"Turtle",2,"right",FALSE,"right",TRUE,5,TRUE,FALSE,FALSE,"right","middle",TRUE,FALSE,FALSE,"right","right",3620.39999997616,3509.60000002384,FALSE
"681b781064a5701a5ceee3bc","Can",3,"Zebra",2,"Pancakes",2,"left",FALSE,"right",TRUE,5,FALSE,FALSE,TRUE,"right","middle",FALSE,FALSE,TRUE,"right","left",2207.19999980927,3183.79999995232,TRUE
"6716c6700f376dc7f534af9d","Bean",3,"Soda",3,"Milk",3,"left",FALSE,"right",TRUE,5,FALSE,FALSE,TRUE,"right","middle",FALSE,FALSE,TRUE,"right","left",4911.10000014305,4009.5,FALSE
"671a3ac3dada5efe6d439698","Milk",5,"Soda",4,"Sweater",4,"right",FALSE,"middle",TRUE,5,FALSE,TRUE,FALSE,"middle","middle",FALSE,TRUE,FALSE,"middle","right",9671.5,2682.69999980927,FALSE
"676b89007874c8eace113276","Towels",5,"Umbrella",3,"Plate",3,"right",FALSE,"left",TRUE,5,FALSE,FALSE,TRUE,"left","middle",FALSE,FALSE,TRUE,"left","right",2382,2104,FALSE
"6825af939111d286546fdde6","Shoes",2,"Pan",4,"Coloring Book",4,"middle",FALSE,"middle",TRUE,5,TRUE,FALSE,FALSE,"middle","right",TRUE,FALSE,FALSE,"middle","middle",2864.5,3053.29999995232,FALSE
"67164c92298409e37c670b3d","Socks",1,"Fly",1,"Clock",1,"right",FALSE,"right",TRUE,5,TRUE,FALSE,FALSE,"right","left",TRUE,FALSE,FALSE,"right","right",1735.39999999851,3277.69999999925,FALSE
"682b3f63d0e2c4eff64fe664","Tree",4,"Hat",4,"Hamburger",4,"middle",FALSE,"middle",TRUE,5,TRUE,FALSE,FALSE,"middle","left",TRUE,FALSE,FALSE,"middle","middle",2834.40000000596,885.09999999404,TRUE
"5d3695969749cc00165c222f","Rock",4,"Turtle",2,"Bell",2,"middle",FALSE,"left",TRUE,5,FALSE,FALSE,TRUE,"left","right",FALSE,FALSE,TRUE,"left","middle",1958.5,942.900000035763,TRUE
"664521e03117b782ed4fff45","Pan",5,"Bean",5,"Shovel",5,"right",FALSE,"middle",TRUE,5,FALSE,FALSE,TRUE,"middle","left",FALSE,FALSE,TRUE,"middle","right",2397.59999999404,1912.10000000149,FALSE
"5f0db498f5e4e102c0f65b67","Pirate",1,"Tricycle",1,"Bowl",1,"middle",FALSE,"right",TRUE,1,FALSE,FALSE,TRUE,"right","left",FALSE,FALSE,TRUE,"right","middle",1996.30000000075,1912.19999999925,FALSE
"6773dea609f77d473900997a","Cable",2,"Baby",5,"Sofa",5,"left",FALSE,"left",FALSE,5,FALSE,TRUE,FALSE,"middle","middle",TRUE,FALSE,FALSE,"left","left",2308.90000003576,7138.90000003576,TRUE
"637fcee60a8378c1c3a65898","Queen",4,"Eyes",4,"Arm",4,"right",FALSE,"left",TRUE,5,FALSE,FALSE,TRUE,"left","middle",FALSE,FALSE,TRUE,"left","right",3012.5,1782,FALSE
"63f77a5dde1ea03305e119e0","Barn",2,"Moon",2,"Knee",2,"left",FALSE,"middle",TRUE,5,FALSE,FALSE,TRUE,"middle","right",FALSE,FALSE,TRUE,"middle","left",2128.60000000149,1481.5,FALSE
"5fbf90f025a567296d943c7e","Spaghetti",4,"Teeth",4,"Mountain",4,"left",FALSE,"middle",FALSE,5,FALSE,FALSE,TRUE,"right","middle",FALSE,TRUE,FALSE,"middle","left",2450.89999985695,8402.60000014305,FALSE
"636d6ce3fb3683ff33f9e514","Apples",5,"Chips",3,"Square",3,"left",TRUE,"left",TRUE,5,TRUE,FALSE,FALSE,"left","middle",TRUE,FALSE,FALSE,"left","left",3549,2278,FALSE
"5af2a03697a14300017d2ba4","Necklace",2,"Toes",3,"Chicken",3,"left",FALSE,"right",FALSE,5,TRUE,FALSE,FALSE,"left","middle",FALSE,FALSE,TRUE,"right","left",4669,2177,FALSE
"60e3a25e8be835f754795d93","Mirror",1,"Toilet",1,"Bananas",1,"right",TRUE,"right",TRUE,5,TRUE,FALSE,FALSE,"right","left",TRUE,FALSE,FALSE,"right","right",1473.89999961853,1687.90000009537,TRUE
"66b5172c8f0bd3b23ce66c22","Wagon",2,"Bracelet",2,"Bat",2,"middle",FALSE,"left",TRUE,6,FALSE,FALSE,TRUE,"left","right",FALSE,FALSE,TRUE,"left","middle",1514.29999995232,2266.10000002384,FALSE
"5ba60abd9629a90001b36fdc","Sink",3,"Wing",4,"Fries",4,"middle",FALSE,"middle",TRUE,6,TRUE,FALSE,FALSE,"middle","left",TRUE,FALSE,FALSE,"middle","middle",3768.60000002384,3258,FALSE
"65dc99d0191a135ab835bf69","Carrots",2,"Apples",5,"Soup",5,"middle",TRUE,"middle",TRUE,6,TRUE,FALSE,FALSE,"middle","right",TRUE,FALSE,FALSE,"middle","middle",1250.30000000075,1212.89999999851,FALSE
"60fe7bf61c7567f5cca9ade6","Tongue",2,"Helicopter",4,"Sweater",4,"left",FALSE,"right",TRUE,6,FALSE,TRUE,FALSE,"right","right",FALSE,TRUE,FALSE,"right","left",1934.29999999702,2712.19999998808,TRUE
"5c9d88bb2b3c77001744ec1c","Cheese",1,"Sandwich",2,"Lizard",2,"left",FALSE,"right",TRUE,6,FALSE,FALSE,TRUE,"right","middle",FALSE,FALSE,TRUE,"right","left",3218.39999999851,3407.40000000224,FALSE
"5e283f576dbb560114ac7714","Queen",1,"Bathtub",5,"Paper",5,"middle",FALSE,"right",TRUE,6,FALSE,FALSE,TRUE,"right","left",FALSE,FALSE,TRUE,"right","middle",3230.69999980927,3663.40000009537,FALSE
"62e02b1ed5b0fbc1b1dc09e7","Giraffe",2,"Stool",5,"Napkin",5,"left",FALSE,"middle",TRUE,6,FALSE,FALSE,TRUE,"middle","right",FALSE,FALSE,TRUE,"middle","left",2159.09999990463,2311.70000004768,FALSE
"5ecf9b46617a9b3dd56b3fe3","Knife",1,"TV",5,"Wagon",5,"middle",FALSE,"middle",TRUE,6,TRUE,FALSE,FALSE,"middle","right",TRUE,FALSE,FALSE,"middle","middle",2126.60000002384,1825.70000004768,TRUE
"590b3401182caf0001ab5801","Ice Cream",4,"Pan",2,"Yo-yo",2,"right",FALSE,"left",TRUE,6,FALSE,TRUE,FALSE,"left","left",FALSE,TRUE,FALSE,"left","right",2468.69999998808,1862,FALSE
"65c11389b0d2ba8e63cb8b22","Rainbow",4,"Camera",4,"Bag",4,"right",FALSE,"left",TRUE,6,FALSE,TRUE,FALSE,"left","left",FALSE,TRUE,FALSE,"left","right",2457.80000019073,1147.5,FALSE
"5d15160539eeea001683830c","Cow",4,"Glove",5,"Feather",5,"middle",FALSE,"middle",TRUE,6,TRUE,FALSE,FALSE,"middle","left",TRUE,FALSE,FALSE,"middle","middle",2441.10000000149,2443.79999999888,FALSE
"6620b6a209127dafd5b2dfb9","Cupcake",2,"Slinky",1,"Frog",1,"right",FALSE,"right",TRUE,6,TRUE,FALSE,FALSE,"right","middle",TRUE,FALSE,FALSE,"right","right",4189,2359,FALSE
"56c65a5a305eaa0005f2a634","Phone",2,"Tie",4,"Bear",4,"right",FALSE,"right",FALSE,6,FALSE,TRUE,FALSE,"middle","middle",TRUE,FALSE,FALSE,"right","right",1818.5,1321.59999999963,FALSE
"59fb1518b47dfc0001b6659b","Bowl",4,"Bubbles",4,"Waffle",4,"left",FALSE,"left",TRUE,6,TRUE,FALSE,FALSE,"left","middle",TRUE,FALSE,FALSE,"left","left",546,1528,FALSE
"602c0fc2eff74b4748e9b41e","Fork",1,"Grapes",5,"Radio",5,"middle",TRUE,"middle",TRUE,6,TRUE,FALSE,FALSE,"middle","left",TRUE,FALSE,FALSE,"middle","middle",831,961,FALSE
"5bcc98d1db645700015222b5","Keys",1,"Knife",2,"Stove",2,"left",FALSE,"left",FALSE,6,FALSE,TRUE,FALSE,"right","right",TRUE,FALSE,FALSE,"left","left",1345.09999999963,2721.90000000037,FALSE
"6773e6e6b205d22a2e097735","Mouse",4,"Swing",3,"Brush",3,"middle",FALSE,"middle",TRUE,6,TRUE,FALSE,FALSE,"middle","left",TRUE,FALSE,FALSE,"middle","middle",1495.39999985695,2301,FALSE
"67505c42a18c872bab88ed42","Watch",1,"Chalk",4,"Moon",4,"right",FALSE,"middle",TRUE,6,FALSE,FALSE,TRUE,"middle","left",FALSE,FALSE,TRUE,"middle","right",2230.19999998808,10827.4000000358,FALSE
"62a1e021702679d27813a3e2","Stick",3,"Sofa",5,"Meat",5,"right",FALSE,"middle",FALSE,6,FALSE,TRUE,FALSE,"left","left",FALSE,FALSE,TRUE,"middle","right",4805.30000019073,4317.90000009537,FALSE
"639f294882a3797f77a3dd81","Mailbox",1,"Play dough",5,"Helicopter",5,"right",FALSE,"right",FALSE,6,FALSE,FALSE,TRUE,"middle","left",TRUE,FALSE,FALSE,"right","right",3030.59999990463,3711.79999995232,FALSE
"654bc148c95bca00d541ec33","Boat",5,"Feet",5,"Tummy",5,"right",FALSE,"left",TRUE,6,FALSE,TRUE,FALSE,"left","left",FALSE,TRUE,FALSE,"left","right",2693.5,2190.5,TRUE
"5d23460ad4c57900192b129c","Books",1,"Flower",4,"Broom",4,"middle",FALSE,"right",FALSE,6,TRUE,FALSE,FALSE,"middle","left",FALSE,FALSE,TRUE,"right","middle",2617.59999999963,4436.90000000037,FALSE
"67673cda94b4d0cf1a6a7382","Crown",3,"Spiderweb",4,"Sunglasses",4,"left",FALSE,"left",TRUE,6,TRUE,FALSE,FALSE,"left","middle",TRUE,FALSE,FALSE,"left","left",2431,1800.29999995232,FALSE
"5c4f5967aac8be0001716a65","Toy",2,"Candy",3,"Airplane",3,"middle",FALSE,"right",TRUE,6,FALSE,FALSE,TRUE,"right","left",FALSE,FALSE,TRUE,"right","middle",1986,1927.69999992847,FALSE
"67758c9a30d6819221153393","Net",1,"Pear",1,"Window",1,"middle",TRUE,"middle",TRUE,6,TRUE,FALSE,FALSE,"middle","right",TRUE,FALSE,FALSE,"middle","middle",1672.5,1693.19999999553,FALSE
"66b37344796f45313433abc8","Sand",4,"Bow",5,"Brush",5,"left",FALSE,"right",FALSE,6,TRUE,FALSE,FALSE,"left","middle",FALSE,FALSE,TRUE,"right","left",1328.40000000224,2827.59999999776,FALSE
"632096b5574155e8727c50cc","Zebra",2,"Sofa",4,"Carrots",4,"left",FALSE,"middle",TRUE,6,FALSE,FALSE,TRUE,"middle","right",FALSE,FALSE,TRUE,"middle","left",1935.29999999888,3469.80000000075,FALSE
"66dcc0e54f44ccecf2730c76","Brush",2,"Swing",3,"Paper",3,"right",FALSE,"middle",TRUE,6,FALSE,FALSE,TRUE,"middle","left",FALSE,FALSE,TRUE,"middle","right",1877.10000000056,4197.5,TRUE
"60fac7ec133b6bf250d6d668","Magazine",4,"Tissue",5,"Balls",5,"left",FALSE,"left",FALSE,6,FALSE,FALSE,TRUE,"middle","right",TRUE,FALSE,FALSE,"left","left",1513.70000001788,3165.5,FALSE
"5e459f61418f610891628564","Tiger",4,"Hands",3,"Knee",3,"left",FALSE,"left",TRUE,6,TRUE,FALSE,FALSE,"left","right",TRUE,FALSE,FALSE,"left","left",2822.5,1970,FALSE
"5e89ec793c01b3685a00bb12","Yo-yo",5,"Coloring Book",3,"Hose",3,"right",FALSE,"right",FALSE,6,FALSE,TRUE,FALSE,"left","left",TRUE,FALSE,FALSE,"right","right",2863.5,1816.10000002384,FALSE
"631d197eba06364cbea7fab2","Fish",4,"Pencil",5,"Chips",5,"left",FALSE,"middle",FALSE,6,TRUE,FALSE,FALSE,"left","middle",FALSE,TRUE,FALSE,"middle","left",2509.20000004768,1978.70000004768,TRUE
"61656042f505fd7fa53e8628","Hair",4,"Jump rope",5,"Giraffe",5,"right",FALSE,"middle",TRUE,2,FALSE,FALSE,TRUE,"middle","left",FALSE,FALSE,TRUE,"middle","right",3340.19999999925,1934.60000000149,FALSE
"66fd3f6c93c24ecc119be354","Elbow",3,"Bandaid",1,"Mountain",1,"right",FALSE,"right",TRUE,6,TRUE,FALSE,FALSE,"right","left",TRUE,FALSE,FALSE,"right","right",1570,387,TRUE
"5af1a4bc6e136b0001411714","Fence",3,"Bubbles",5,"Envelope",5,"right",FALSE,"middle",FALSE,6,TRUE,FALSE,FALSE,"right","middle",FALSE,TRUE,FALSE,"middle","right",2024.69999999925,2347.80000000075,FALSE
"60ed501279c68ea1a313d0aa","Kangaroo",3,"Sheep",5,"Stairs",5,"left",FALSE,"left",TRUE,6,TRUE,FALSE,FALSE,"left","right",TRUE,FALSE,FALSE,"left","left",2343.10000038147,2565.10000038147,FALSE
"5bf2f728bd9f150001f6cc42","Duck",5,"Butterfly",5,"Leg",5,"right",FALSE,"right",FALSE,6,FALSE,FALSE,TRUE,"left","middle",TRUE,FALSE,FALSE,"right","right",2275.29999999993,2094.70000000007,FALSE
"59a734ce0c87a000017481ed","Tree",1,"Soda",4,"Chips",4,"middle",FALSE,"right",TRUE,6,FALSE,TRUE,FALSE,"right","right",FALSE,TRUE,FALSE,"right","middle",1817.19999998808,2244.20000004768,FALSE
"615e420a23219efe3427a367","Bread",4,"Bike",3,"Movie",3,"left",FALSE,"right",FALSE,6,TRUE,FALSE,FALSE,"left","right",FALSE,TRUE,FALSE,"right","left",3563.29999995232,3371.60000014305,FALSE
"66b244a2f436437d3e109bbe","Rice",4,"Stamps",2,"Puzzles",2,"left",FALSE,"left",TRUE,6,TRUE,FALSE,FALSE,"left","right",TRUE,FALSE,FALSE,"left","left",4025.5,2502.80000019073,TRUE
"5f1b05a8703c380d1393bb27","Lunch",1,"Pie",3,"Owl",3,"middle",FALSE,"right",TRUE,6,FALSE,TRUE,FALSE,"right","right",FALSE,TRUE,FALSE,"right","middle",5231,2790,FALSE
"6684497541f835bd67a199b2","Cat",2,"Fence",1,"Glove",1,"right",FALSE,"right",TRUE,6,TRUE,FALSE,FALSE,"right","left",TRUE,FALSE,FALSE,"right","right",1840.5,1249.80000001192,FALSE
