success,trial_type,trial_index,time_elapsed,internal_node_id,STUDY_ID,PROLIFIC_PID,SESSION_ID,participant_number,reconstruction_instructions,comprehend_reconstruction,nonpretend_instructions,comprehend_np,nickname,bonus,condition,view_history,rt,responses,question_order,correct,test_part,grid,already_clicked,click_log,final_grid_state,num_clicks,cheat,round_points,misses,grid_number
1,fullscreen,0,3068,0.0-0.0,6978f7723afd6296bd3c6be6,662948ed99960b11f2f8e3fe,6978fbe7123a2347afd6403a,261,1,TRUE,1,TRUE,Player 261,60,asymmetric,"",,"","",,"","","","","",,,,,
,instructions,1,133974,0.0-1.0,6978f7723afd6296bd3c6be6,662948ed99960b11f2f8e3fe,6978fbe7123a2347afd6403a,261,1,TRUE,1,TRUE,Player 261,60,asymmetric,"[{""""page_index"""":0,""""viewing_time"""":16172.399999976158},{""""page_index"""":1,""""viewing_time"""":9539.799999952316},{""""page_index"""":2,""""viewing_time"""":26198},{""""page_index"""":3,""""viewing_time"""":5799.700000047684},{""""page_index"""":4,""""viewing_time"""":6858.199999928474},{""""page_index"""":3,""""viewing_time"""":1277.7000000476837},{""""page_index"""":2,""""viewing_time"""":602.5},{""""page_index"""":1,""""viewing_time"""":870.5},{""""page_index"""":0,""""viewing_time"""":32942.799999952316},{""""page_index"""":1,""""viewing_time"""":6256.400000095367},{""""page_index"""":2,""""viewing_time"""":4532},{""""page_index"""":3,""""viewing_time"""":4546.699999928474},{""""page_index"""":4,""""viewing_time"""":15306.200000047684}]",130903.199999928,"","",,"","","","","",,,,,
,survey-multi-choice,2,176695,0.0-2.0,6978f7723afd6296bd3c6be6,662948ed99960b11f2f8e3fe,6978fbe7123a2347afd6403a,261,1,TRUE,1,TRUE,Player 261,60,asymmetric,"",42719.7000000477,"{""""Q0"""":""""... find all black cards whilst revealing as <b>few white cards</b> as possible""""}",[0],1,multichoice_part1,"","","","",,,,,
,instructions,3,185790,0.0-4.0-0.0,6978f7723afd6296bd3c6be6,662948ed99960b11f2f8e3fe,6978fbe7123a2347afd6403a,261,1,TRUE,1,TRUE,Player 261,60,asymmetric,"[{""""page_index"""":0,""""viewing_time"""":9094.600000023842}]",9094.70000004768,"","",,"","","","","",,,,,
,findSquares,4,207919,0.0-4.0-1.0,6978f7723afd6296bd3c6be6,662948ed99960b11f2f8e3fe,6978fbe7123a2347afd6403a,261,1,TRUE,1,TRUE,Player 261,60,asymmetric,"",,"","",,"","[['0', '0', '0', '0'], ['1', '1', '1', '1'], ['1', '1', '1', '1'], ['0', '0', '0', '0']]","[[2, 2]]","{'i': [2, 1, 3, 0, 1, 1, 1, 0, 2, 2], 'j': [1, 1, 1, 1, 2, 0, 3, 2, 3, 0], 't': [2515.5, 4345.700000047684, 7104.299999952316, 10270.299999952316, 11134.600000023842, 12939.399999976158, 15675.399999976158, 17405.700000047684, 18285.299999952316, 20115.399999976158], 'hit': ['1', '1', '0', '0', '1', '1', '1', '0', '1', '1'], 'b': []}","[['unknown', 'white', 'white', 'unknown'], ['black', 'black', 'black', 'black'], ['black', 'black', 'black', 'black'], ['unknown', 'white', 'unknown', 'unknown']]",10,0,5,,
,instructions,5,210941,0.0-4.0-2.0,6978f7723afd6296bd3c6be6,662948ed99960b11f2f8e3fe,6978fbe7123a2347afd6403a,261,1,TRUE,1,TRUE,Player 261,60,asymmetric,"[{""""page_index"""":0,""""viewing_time"""":3021.100000023842}]",3021.19999992847,"","",,"","","","","",,,,,
,instructions,6,270817,0.0-4.0-3.0,6978f7723afd6296bd3c6be6,662948ed99960b11f2f8e3fe,6978fbe7123a2347afd6403a,261,1,TRUE,1,TRUE,Player 261,60,asymmetric,"[{""""page_index"""":0,""""viewing_time"""":55462},{""""page_index"""":1,""""viewing_time"""":4413.699999928474}]",59875.7999999523,"","",,"","","","","",,,,,
,findSquares,7,480614,0.0-4.0-4.0-0.0,6978f7723afd6296bd3c6be6,662948ed99960b11f2f8e3fe,6978fbe7123a2347afd6403a,261,1,TRUE,1,TRUE,Player 261,60,asymmetric,"",,"","",,non-pretend,"[['0', '0', '0', '0', '0', '0'], ['1', '1', '0', '0', '1', '1'], ['0', '0', '0', '0', '0', '0'], ['1', '0', '0', '0', '0', '1'], ['1', '1', '0', '0', '1', '1'], ['0', '0', '0', '0', '0', '0']]","[[1, 1], [1, 5], [3, 5], [4, 0]]","{'i': [1, 3, 4, 1, 2, 2, 2, 2, 1, 1, 0, 2, 2, 5, 0, 0, 4, 4], 'j': [0, 0, 5, 4, 5, 0, 1, 4, 2, 3, 1, 2, 3, 5, 0, 5, 1, 4], 't': [32968.89999997616, 91921.59999990463, 95314.39999997616, 125274.69999992847, 158553.79999995232, 159576.79999995232, 164498.69999992847, 165516.69999992847, 193042.69999992847, 193599.69999992847, 195027.59999990463, 202916.69999992847, 204044.69999992847, 204581.5, 205401.69999992847, 206009.69999992847, 206800.5, 207783.69999992847], 'hit': ['1', '1', '1', '1', '0', '0', '0', '0', '0', '0', '0', '0', '0', '0', '0', '0', '1', '1'], 'b': []}","[['white', 'white', 'unknown', 'unknown', 'unknown', 'white'], ['black', 'black', 'white', 'white', 'black', 'black'], ['white', 'white', 'white', 'white', 'white', 'white'], ['black', 'unknown', 'unknown', 'unknown', 'unknown', 'black'], ['black', 'black', 'unknown', 'unknown', 'black', 'black'], ['unknown', 'unknown', 'unknown', 'unknown', 'unknown', 'white']]",18,0,14,,1
,instructions,8,484570,0.0-4.0-4.0-1.0,6978f7723afd6296bd3c6be6,662948ed99960b11f2f8e3fe,6978fbe7123a2347afd6403a,261,1,TRUE,1,TRUE,Player 261,60,asymmetric,"[{""""page_index"""":0,""""viewing_time"""":3955.5}]",3955.80000007153,"","",,"","","","","",,,,,
,findSquares,9,731920,0.0-4.0-4.0-0.1,6978f7723afd6296bd3c6be6,662948ed99960b11f2f8e3fe,6978fbe7123a2347afd6403a,261,1,TRUE,1,TRUE,Player 261,60,asymmetric,"",,"","",,non-pretend,"[['0', '0', '0', '0', '0', '0'], ['0', '0', '1', '1', '0', '0'], ['0', '0', '1', '0', '0', '0'], ['0', '1', '0', '0', '1', '0'], ['0', '1', '0', '0', '1', '1'], ['0', '1', '0', '0', '1', '0']]","[[1, 2], [4, 4], [5, 1]]","{'i': [4, 5, 5, 4, 1, 1, 2, 3, 4, 0, 3, 0, 5], 'j': [5, 0, 2, 1, 1, 3, 2, 1, 3, 2, 4, 3, 4], 't': [8864.599999904633, 9911.599999904633, 10836.699999928474, 11550.699999928474, 13217.699999928474, 13926.699999928474, 15095.699999928474, 19173.5, 21562.799999952316, 24478.599999904633, 25588.699999928474, 239964.19999992847, 245337.39999997616], 'hit': ['1', '0', '0', '1', '0', '1', '1', '1', '0', '0', '1', '0', '1'], 'b': []}","[['unknown', 'unknown', 'white', 'white', 'unknown', 'unknown'], ['unknown', 'white', 'black', 'black', 'unknown', 'unknown'], ['unknown', 'unknown', 'black', 'unknown', 'unknown', 'unknown'], ['unknown', 'black', 'unknown', 'unknown', 'black', 'unknown'], ['unknown', 'black', 'unknown', 'white', 'black', 'black'], ['white', 'black', 'white', 'unknown', 'black', 'unknown']]",13,0,20,,9
,instructions,10,733373,0.0-4.0-4.0-1.1,6978f7723afd6296bd3c6be6,662948ed99960b11f2f8e3fe,6978fbe7123a2347afd6403a,261,1,TRUE,1,TRUE,Player 261,60,asymmetric,"[{""""page_index"""":0,""""viewing_time"""":1452.3999999761581}]",1452.60000002384,"","",,"","","","","",,,,,
,findSquares,11,754546,0.0-4.0-4.0-0.2,6978f7723afd6296bd3c6be6,662948ed99960b11f2f8e3fe,6978fbe7123a2347afd6403a,261,1,TRUE,1,TRUE,Player 261,60,asymmetric,"",,"","",,non-pretend,"[['1', '1', '1', '0', '0', '1'], ['0', '0', '0', '0', '0', '1'], ['0', '0', '0', '0', '0', '0'], ['0', '0', '0', '0', '1', '0'], ['1', '1', '0', '1', '1', '0'], ['0', '0', '0', '0', '0', '0']]","[[0, 1], [0, 5], [4, 0], [4, 4]]","{'i': [4, 0, 1, 3, 4, 4, 0, 1, 1, 1, 2, 5, 3, 5, 4, 3, 5, 0, 3], 'j': [5, 4, 1, 0, 1, 3, 2, 5, 2, 4, 5, 0, 1, 1, 2, 3, 4, 0, 4], 't': [2212.600000023842, 3112.399999976158, 3933.2999999523163, 4683.399999976158, 5190.399999976158, 6102.299999952316, 7068.399999976158, 8249.399999976158, 9987.299999952316, 10696.600000023842, 11354.399999976158, 12736.399999976158, 13681.299999952316, 14402.299999952316, 14756.399999976158, 16095.399999976158, 16758.299999952316, 17647.299999952316, 19166.299999952316], 'hit': ['0', '0', '0', '0', '1', '1', '1', '1', '0', '0', '0', '0', '0', '0', '0', '0', '0', '1', '1'], 'b': []}","[['black', 'black', 'black', 'unknown', 'white', 'black'], ['unknown', 'white', 'white', 'unknown', 'white', 'black'], ['unknown', 'unknown', 'unknown', 'unknown', 'unknown', 'white'], ['white', 'white', 'unknown', 'white', 'black', 'unknown'], ['black', 'black', 'white', 'black', 'black', 'white'], ['white', 'white', 'unknown', 'unknown', 'white', 'unknown']]",19,0,13,,10
,instructions,12,755962,0.0-4.0-4.0-1.2,6978f7723afd6296bd3c6be6,662948ed99960b11f2f8e3fe,6978fbe7123a2347afd6403a,261,1,TRUE,1,TRUE,Player 261,60,asymmetric,"[{""""page_index"""":0,""""viewing_time"""":1414.8999999761581}]",1415,"","",,"","","","","",,,,,
,findSquares,13,791391,0.0-4.0-4.0-0.3,6978f7723afd6296bd3c6be6,662948ed99960b11f2f8e3fe,6978fbe7123a2347afd6403a,261,1,TRUE,1,TRUE,Player 261,60,asymmetric,"",,"","",,non-pretend,"[['0', '0', '0', '0', '0', '0'], ['0', '0', '0', '0', '0', '0'], ['0', '1', '1', '1', '0', '0'], ['0', '0', '1', '0', '0', '1'], ['1', '1', '0', '0', '0', '1'], ['1', '0', '0', '0', '0', '1']]","[[2, 2], [4, 1], [4, 5]]","{'i': [3, 5, 1, 4, 2, 4, 3, 2, 3, 5, 3, 1, 5, 4, 1, 3, 2, 2, 2, 3], 'j': [1, 5, 2, 2, 1, 0, 5, 3, 0, 0, 4, 1, 4, 4, 3, 3, 0, 4, 5, 2], 't': [1575.3999999761581, 2999.7999999523163, 4418.700000047684, 5343.200000047684, 6442.5, 7311.399999976158, 9421.200000047684, 10792.299999952316, 15507.5, 16609.700000047684, 21241.399999976158, 24552.399999976158, 25209.399999976158, 26162.399999976158, 27962.299999952316, 28632.399999976158, 29816.399999976158, 30733.399999976158, 31972.200000047684, 33420.39999997616], 'hit': ['0', '1', '0', '0', '1', '1', '1', '1', '0', '1', '0', '0', '0', '0', '0', '0', '0', '0', '0', '1'], 'b': []}","[['unknown', 'unknown', 'unknown', 'unknown', 'unknown', 'unknown'], ['unknown', 'white', 'white', 'white', 'unknown', 'unknown'], ['white', 'black', 'black', 'black', 'white', 'white'], ['white', 'white', 'black', 'white', 'white', 'black'], ['black', 'black', 'white', 'unknown', 'white', 'black'], ['black', 'unknown', 'unknown', 'unknown', 'white', 'black']]",20,0,13,,8
,instructions,14,792930,0.0-4.0-4.0-1.3,6978f7723afd6296bd3c6be6,662948ed99960b11f2f8e3fe,6978fbe7123a2347afd6403a,261,1,TRUE,1,TRUE,Player 261,60,asymmetric,"[{""""page_index"""":0,""""viewing_time"""":1538.1999999284744}]",1538.5,"","",,"","","","","",,,,,
,instructions,15,795155,0.0-4.0-5.0,6978f7723afd6296bd3c6be6,662948ed99960b11f2f8e3fe,6978fbe7123a2347afd6403a,261,1,TRUE,1,TRUE,Player 261,60,asymmetric,"[{""""page_index"""":0,""""viewing_time"""":2225.3000000715256}]",2225.5,"","",,"","","","","",,,,,
,instructions,16,848573,0.0-4.0-6.0-0.0,6978f7723afd6296bd3c6be6,662948ed99960b11f2f8e3fe,6978fbe7123a2347afd6403a,261,1,TRUE,1,TRUE,Player 261,60,asymmetric,"[{""""page_index"""":0,""""viewing_time"""":3234.100000023842},{""""page_index"""":1,""""viewing_time"""":18961.100000023842},{""""page_index"""":2,""""viewing_time"""":9506.299999952316},{""""page_index"""":3,""""viewing_time"""":21715.600000023842}]",53417.1000000239,"","",,"","","","","",,,,,
,survey-multi-choice,17,852643,0.0-4.0-6.0-1.0,6978f7723afd6296bd3c6be6,662948ed99960b11f2f8e3fe,6978fbe7123a2347afd6403a,261,1,TRUE,1,TRUE,Player 261,60,asymmetric,"",4068.89999997616,"{""""Q0"""":""""... <b>repeat</b> my clicks from the first round, in the same order""""}",[0],1,multichoice_reconstruction,"","","","",,,,,
,instructions,18,877358,0.0-4.0-7.0,6978f7723afd6296bd3c6be6,662948ed99960b11f2f8e3fe,6978fbe7123a2347afd6403a,261,1,TRUE,1,TRUE,Player 261,60,asymmetric,"[{""""page_index"""":0,""""viewing_time"""":24715}]",24715.2999999523,"","",,"","","","","",,,,,
,findSquares,19,932901,0.0-4.0-8.0,6978f7723afd6296bd3c6be6,662948ed99960b11f2f8e3fe,6978fbe7123a2347afd6403a,261,1,TRUE,1,TRUE,Player 261,60,asymmetric,"",,"","",,memory,"[['0', '0', '0', '0', '0', '0'], ['1', '1', '0', '0', '1', '1'], ['0', '0', '0', '0', '0', '0'], ['1', '0', '0', '0', '0', '1'], ['1', '1', '0', '0', '1', '1'], ['0', '0', '0', '0', '0', '0']]","[[1, 1], [1, 5], [3, 5], [4, 0]]","{'i': [1, 1, 3, 4, 2, 2, 2, 2, 1, 1, 5, 0, 0, 5, 0, 0, 3, 4, 4], 'j': [0, 4, 0, 5, 0, 5, 4, 1, 3, 2, 0, 1, 4, 5, 5, 0, 1, 4, 1], 't': [3217, 5444, 10239, 10950, 19783.099999904633, 20619.5, 22950.099999904633, 23537.099999904633, 43589.89999997616, 44132.09999990463, 45546.89999997616, 46991, 47721.799999952316, 48713.89999997616, 49684.199999928474, 50795.09999990463, 51558, 52938.799999952316, 53533.89999997616], 'hit': ['1', '1', '1', '1', '0', '0', '0', '0', '0', '0', '0', '0', '0', '0', '0', '0', '0', '1', '1'], 'b': []}","[['white', 'white', 'unknown', 'unknown', 'white', 'white'], ['black', 'black', 'white', 'white', 'black', 'black'], ['white', 'white', 'unknown', 'unknown', 'white', 'white'], ['black', 'white', 'unknown', 'unknown', 'unknown', 'black'], ['black', 'black', 'unknown', 'unknown', 'black', 'black'], ['white', 'unknown', 'unknown', 'unknown', 'unknown', 'white']]",19,0,13,,1
,survey-multi-choice,20,944735,0.0-4.0-9.0,6978f7723afd6296bd3c6be6,662948ed99960b11f2f8e3fe,6978fbe7123a2347afd6403a,261,1,TRUE,1,TRUE,Player 261,60,asymmetric,"",11832.8999999762,"{""""Q0"""":""""... <b>the same number of</b> white cards""""}",[0],,estimate,"","","","",,,,,
,survey-text,21,1011087,0.0-4.0-10.0,6978f7723afd6296bd3c6be6,662948ed99960b11f2f8e3fe,6978fbe7123a2347afd6403a,261,1,TRUE,1,TRUE,Player 261,60,asymmetric,"",66350.2999999523,"{""""worker_comments"""":""""It was engaging, the puzzles were challenging. The bonus round twist was clever!""""}","",,"","","","","",,,,,
,instructions,22,1014945,0.0-4.0-11.0,6978f7723afd6296bd3c6be6,662948ed99960b11f2f8e3fe,6978fbe7123a2347afd6403a,261,1,TRUE,1,TRUE,Player 261,60,asymmetric,"[{""""page_index"""":0,""""viewing_time"""":3857.600000023842}]",3857.79999995232,"","",,"","","","","",,,,,
1,fullscreen,0,38569,0.0-0.0,6978f7723afd6296bd3c6be6,62b9c2f1e55fe9f17dfedc5d,6978fc55edc0f6ba1796bf39,262,2,TRUE,1,TRUE,Player 262,41,asymmetric,"",,"","",,"","","","","",,,,,
,instructions,1,186563,0.0-1.0,6978f7723afd6296bd3c6be6,62b9c2f1e55fe9f17dfedc5d,6978fc55edc0f6ba1796bf39,262,2,TRUE,1,TRUE,Player 262,41,asymmetric,"[{""""page_index"""":0,""""viewing_time"""":12423.999999999993},{""""page_index"""":1,""""viewing_time"""":43390},{""""page_index"""":2,""""viewing_time"""":8925.000000000015},{""""page_index"""":3,""""viewing_time"""":4226},{""""page_index"""":4,""""viewing_time"""":79023.00000000001}]",147989,"","",,"","","","","",,,,,
,survey-multi-choice,2,193190,0.0-2.0,6978f7723afd6296bd3c6be6,62b9c2f1e55fe9f17dfedc5d,6978fc55edc0f6ba1796bf39,262,2,TRUE,1,TRUE,Player 262,41,asymmetric,"",6625,"{""""Q0"""":""""... find all black cards whilst revealing as <b>few white cards</b> as possible""""}",[0],1,multichoice_part1,"","","","",,,,,
,instructions,3,197038,0.0-4.0-0.0,6978f7723afd6296bd3c6be6,62b9c2f1e55fe9f17dfedc5d,6978fc55edc0f6ba1796bf39,262,2,TRUE,1,TRUE,Player 262,41,asymmetric,"[{""""page_index"""":0,""""viewing_time"""":3847.000000000029}]",3847.00000000003,"","",,"","","","","",,,,,
,findSquares,4,217843,0.0-4.0-1.0,6978f7723afd6296bd3c6be6,62b9c2f1e55fe9f17dfedc5d,6978fc55edc0f6ba1796bf39,262,2,TRUE,1,TRUE,Player 262,41,asymmetric,"",,"","",,"","[['0', '0', '0', '0'], ['1', '1', '1', '1'], ['1', '1', '1', '1'], ['0', '0', '0', '0']]","[[2, 2]]","{'i': [2, 0, 3, 1, 1, 3, 2, 1, 1, 2], 'j': [1, 0, 3, 2, 1, 1, 0, 0, 3, 3], 't': [942, 2805, 6411, 7482, 8210, 9004.00000000003, 16024, 16978, 18140, 18795], 'hit': ['1', '0', '0', '1', '1', '0', '1', '1', '1', '1'], 'b': []}","[['white', 'unknown', 'unknown', 'unknown'], ['black', 'black', 'black', 'black'], ['black', 'black', 'black', 'black'], ['unknown', 'white', 'unknown', 'white']]",10,0,5,,
,instructions,5,223075,0.0-4.0-2.0,6978f7723afd6296bd3c6be6,62b9c2f1e55fe9f17dfedc5d,6978fc55edc0f6ba1796bf39,262,2,TRUE,1,TRUE,Player 262,41,asymmetric,"[{""""page_index"""":0,""""viewing_time"""":5230}]",5231,"","",,"","","","","",,,,,
,instructions,6,226517,0.0-4.0-3.0,6978f7723afd6296bd3c6be6,62b9c2f1e55fe9f17dfedc5d,6978fc55edc0f6ba1796bf39,262,2,TRUE,1,TRUE,Player 262,41,asymmetric,"[{""""page_index"""":0,""""viewing_time"""":1868},{""""page_index"""":1,""""viewing_time"""":1572}]",3440,"","",,"","","","","",,,,,
,findSquares,7,269237,0.0-4.0-4.0-0.0,6978f7723afd6296bd3c6be6,62b9c2f1e55fe9f17dfedc5d,6978fc55edc0f6ba1796bf39,262,2,TRUE,1,TRUE,Player 262,41,asymmetric,"",,"","",,non-pretend,"[['0', '0', '0', '0', '0', '0'], ['1', '1', '0', '0', '1', '1'], ['0', '0', '0', '0', '0', '0'], ['1', '0', '0', '0', '0', '1'], ['1', '1', '0', '0', '1', '1'], ['0', '0', '0', '0', '0', '0']]","[[1, 1], [1, 5], [3, 5], [4, 0]]","{'i': [2, 5, 2, 5, 4, 3, 1, 1, 0, 1, 2, 3, 5, 5, 5, 4, 4, 4, 3, 3, 3, 4], 'j': [1, 0, 5, 5, 5, 4, 4, 3, 0, 0, 0, 0, 2, 1, 4, 3, 2, 1, 1, 2, 3, 4], 't': [14418.99999999997, 18084, 19960.99999999997, 21375.99999999997, 22076.99999999997, 23604.99999999997, 25283.99999999997, 26110.99999999997, 28866, 29763, 30486.99999999997, 31258.99999999997, 32701.99999999997, 33516.99999999994, 35556.99999999997, 36612.99999999997, 37491.99999999997, 38203.99999999997, 38926.00000000003, 39684.99999999997, 40216.99999999997, 40716.99999999997], 'hit': ['0', '0', '0', '0', '1', '0', '1', '0', '0', '1', '0', '1', '0', '0', '0', '0', '0', '1', '0', '0', '0', '1'], 'b': []}","[['white', 'unknown', 'unknown', 'unknown', 'unknown', 'unknown'], ['black', 'black', 'unknown', 'white', 'black', 'black'], ['white', 'white', 'unknown', 'unknown', 'unknown', 'white'], ['black', 'white', 'white', 'white', 'white', 'black'], ['black', 'black', 'white', 'white', 'black', 'black'], ['white', 'white', 'white', 'unknown', 'white', 'white']]",22,0,10,,1
,instructions,8,273929,0.0-4.0-4.0-1.0,6978f7723afd6296bd3c6be6,62b9c2f1e55fe9f17dfedc5d,6978fc55edc0f6ba1796bf39,262,2,TRUE,1,TRUE,Player 262,41,asymmetric,"[{""""page_index"""":0,""""viewing_time"""":4690}]",4690,"","",,"","","","","",,,,,
,findSquares,9,303853,0.0-4.0-4.0-0.1,6978f7723afd6296bd3c6be6,62b9c2f1e55fe9f17dfedc5d,6978fc55edc0f6ba1796bf39,262,2,TRUE,1,TRUE,Player 262,41,asymmetric,"",,"","",,non-pretend,"[['1', '1', '1', '0', '0', '1'], ['0', '0', '0', '0', '0', '1'], ['0', '0', '0', '0', '0', '0'], ['0', '0', '0', '0', '1', '0'], ['1', '1', '0', '1', '1', '0'], ['0', '0', '0', '0', '0', '0']]","[[0, 1], [0, 5], [4, 0], [4, 4]]","{'i': [4, 4, 4, 1, 0, 0, 1, 2, 3, 5, 5, 5, 5, 3, 1, 1, 0, 1, 1, 2, 3, 3], 'j': [5, 3, 1, 1, 2, 4, 5, 5, 3, 3, 4, 1, 0, 0, 2, 0, 0, 3, 4, 4, 5, 4], 't': [2130, 3375, 4581, 7205, 8868, 9959, 11604, 13509, 15383, 16388, 17406, 18969, 19489, 20005, 21159, 22014.00000000006, 22747, 25206, 25980, 26687.00000000006, 27339, 27917], 'hit': ['0', '1', '1', '0', '1', '0', '1', '0', '0', '0', '0', '0', '0', '0', '0', '0', '1', '0', '0', '0', '0', '1'], 'b': []}","[['black', 'black', 'black', 'unknown', 'white', 'black'], ['white', 'white', 'white', 'white', 'white', 'black'], ['unknown', 'unknown', 'unknown', 'unknown', 'white', 'white'], ['white', 'unknown', 'unknown', 'white', 'black', 'white'], ['black', 'black', 'unknown', 'black', 'black', 'white'], ['white', 'white', 'unknown', 'white', 'white', 'unknown']]",22,0,10,,10
,instructions,10,310009,0.0-4.0-4.0-1.1,6978f7723afd6296bd3c6be6,62b9c2f1e55fe9f17dfedc5d,6978fc55edc0f6ba1796bf39,262,2,TRUE,1,TRUE,Player 262,41,asymmetric,"[{""""page_index"""":0,""""viewing_time"""":6154}]",6154,"","",,"","","","","",,,,,
,findSquares,11,659457,0.0-4.0-4.0-0.2,6978f7723afd6296bd3c6be6,62b9c2f1e55fe9f17dfedc5d,6978fc55edc0f6ba1796bf39,262,2,TRUE,1,TRUE,Player 262,41,asymmetric,"",,"","",,non-pretend,"[['0', '0', '0', '0', '0', '0'], ['0', '0', '1', '1', '0', '0'], ['0', '0', '1', '0', '0', '0'], ['0', '1', '0', '0', '1', '0'], ['0', '1', '0', '0', '1', '1'], ['0', '1', '0', '0', '1', '0']]","[[1, 2], [4, 4], [5, 1]]","{'i': [4, 4, 4, 5, 5, 3, 1, 1, 1, 0, 0, 2, 2, 4, 3, 3, 2, 2, 3, 4, 3, 2, 5], 'j': [0, 3, 5, 0, 2, 5, 3, 4, 1, 2, 3, 3, 2, 1, 4, 1, 1, 4, 2, 2, 0, 0, 4], 't': [313927.99999999994, 315297.99999999994, 316145.99999999994, 317816.99999999994, 318837.99999999994, 320473.99999999994, 321802.99999999994, 323070.99999999994, 324051.99999999994, 325043.99999999994, 325715.00000000006, 327013.99999999994, 327648.99999999994, 330508.00000000006, 334056.99999999994, 335910.99999999994, 337811.00000000006, 339793.99999999994, 341576.99999999994, 342939.99999999994, 343945.99999999994, 344859.00000000006, 347436.99999999994], 'hit': ['0', '0', '1', '0', '0', '0', '1', '0', '0', '0', '0', '0', '1', '1', '1', '1', '0', '0', '0', '0', '0', '0', '1'], 'b': []}","[['unknown', 'unknown', 'white', 'white', 'unknown', 'unknown'], ['unknown', 'white', 'black', 'black', 'white', 'unknown'], ['white', 'white', 'black', 'white', 'white', 'unknown'], ['white', 'black', 'white', 'unknown', 'black', 'white'], ['white', 'black', 'white', 'white', 'black', 'black'], ['white', 'black', 'white', 'unknown', 'black', 'unknown']]",23,0,10,,9
,instructions,12,667423,0.0-4.0-4.0-1.2,6978f7723afd6296bd3c6be6,62b9c2f1e55fe9f17dfedc5d,6978fc55edc0f6ba1796bf39,262,2,TRUE,1,TRUE,Player 262,41,asymmetric,"[{""""page_index"""":0,""""viewing_time"""":7965.000000000116}]",7965.00000000012,"","",,"","","","","",,,,,
,findSquares,13,699987,0.0-4.0-4.0-0.3,6978f7723afd6296bd3c6be6,62b9c2f1e55fe9f17dfedc5d,6978fc55edc0f6ba1796bf39,262,2,TRUE,1,TRUE,Player 262,41,asymmetric,"",,"","",,non-pretend,"[['0', '0', '0', '0', '0', '0'], ['0', '0', '0', '0', '0', '0'], ['0', '1', '1', '1', '0', '0'], ['0', '0', '1', '0', '0', '1'], ['1', '1', '0', '0', '0', '1'], ['1', '0', '0', '0', '0', '1']]","[[2, 2], [4, 1], [4, 5]]","{'i': [4, 5, 3, 3, 4, 5, 1, 2, 2, 2, 2, 4, 5, 2, 5, 3, 3, 1, 1, 1, 1, 3], 'j': [4, 5, 5, 4, 0, 0, 2, 3, 1, 4, 0, 2, 1, 5, 4, 0, 1, 4, 3, 0, 1, 2], 't': [1596, 2400, 3846, 5132, 7262, 8102, 9954, 10855, 12734, 15012, 16105, 17442, 19016.000000000116, 20125, 22014, 24101, 24792, 26354, 27048, 28304, 29101, 30560], 'hit': ['0', '1', '1', '0', '1', '1', '0', '1', '1', '0', '0', '0', '0', '0', '0', '0', '0', '0', '0', '0', '0', '1'], 'b': []}","[['unknown', 'unknown', 'unknown', 'unknown', 'unknown', 'unknown'], ['white', 'white', 'white', 'white', 'white', 'unknown'], ['white', 'black', 'black', 'black', 'white', 'white'], ['white', 'white', 'black', 'unknown', 'white', 'black'], ['black', 'black', 'white', 'unknown', 'white', 'black'], ['black', 'white', 'unknown', 'unknown', 'white', 'black']]",22,0,11,,8
,instructions,14,704571,0.0-4.0-4.0-1.3,6978f7723afd6296bd3c6be6,62b9c2f1e55fe9f17dfedc5d,6978fc55edc0f6ba1796bf39,262,2,TRUE,1,TRUE,Player 262,41,asymmetric,"[{""""page_index"""":0,""""viewing_time"""":4582}]",4583,"","",,"","","","","",,,,,
,instructions,15,708160,0.0-4.0-5.0,6978f7723afd6296bd3c6be6,62b9c2f1e55fe9f17dfedc5d,6978fc55edc0f6ba1796bf39,262,2,TRUE,1,TRUE,Player 262,41,asymmetric,"[{""""page_index"""":0,""""viewing_time"""":3587.9999999998836}]",3587.99999999988,"","",,"","","","","",,,,,
,instructions,16,772410,0.0-4.0-6.0-0.0,6978f7723afd6296bd3c6be6,62b9c2f1e55fe9f17dfedc5d,6978fc55edc0f6ba1796bf39,262,2,TRUE,1,TRUE,Player 262,41,asymmetric,"[{""""page_index"""":0,""""viewing_time"""":22368},{""""page_index"""":1,""""viewing_time"""":15619},{""""page_index"""":2,""""viewing_time"""":4089},{""""page_index"""":3,""""viewing_time"""":22173}]",64250,"","",,"","","","","",,,,,
,survey-multi-choice,17,797551,0.0-4.0-6.0-1.0,6978f7723afd6296bd3c6be6,62b9c2f1e55fe9f17dfedc5d,6978fc55edc0f6ba1796bf39,262,2,TRUE,1,TRUE,Player 262,41,asymmetric,"",25140,"{""""Q0"""":""""... find all black cards whilst revealing as <b>few white</b> cards as possible""""}",[0],0,multichoice_reconstruction,"","","","",,,,,
,instructions,18,817557,0.0-4.0-6.1-0.1,6978f7723afd6296bd3c6be6,62b9c2f1e55fe9f17dfedc5d,6978fc55edc0f6ba1796bf39,262,2,TRUE,1,TRUE,Player 262,41,asymmetric,"[{""""page_index"""":0,""""viewing_time"""":3754},{""""page_index"""":1,""""viewing_time"""":4546},{""""page_index"""":2,""""viewing_time"""":2357},{""""page_index"""":3,""""viewing_time"""":9347}]",20004,"","",,"","","","","",,,,,
,survey-multi-choice,19,820901,0.0-4.0-6.1-1.1,6978f7723afd6296bd3c6be6,62b9c2f1e55fe9f17dfedc5d,6978fc55edc0f6ba1796bf39,262,2,TRUE,1,TRUE,Player 262,41,asymmetric,"",3344,"{""""Q0"""":""""... <b>repeat</b> my clicks from the first round, in the same order""""}",[0],1,multichoice_reconstruction,"","","","",,,,,
,instructions,20,832389,0.0-4.0-7.0,6978f7723afd6296bd3c6be6,62b9c2f1e55fe9f17dfedc5d,6978fc55edc0f6ba1796bf39,262,2,TRUE,1,TRUE,Player 262,41,asymmetric,"[{""""page_index"""":0,""""viewing_time"""":11487.000000000116}]",11487.0000000001,"","",,"","","","","",,,,,
,findSquares,21,846420,0.0-4.0-8.0,6978f7723afd6296bd3c6be6,62b9c2f1e55fe9f17dfedc5d,6978fc55edc0f6ba1796bf39,262,2,TRUE,1,TRUE,Player 262,41,asymmetric,"",,"","",,memory,"[['0', '0', '0', '0', '0', '0'], ['1', '1', '0', '0', '1', '1'], ['0', '0', '0', '0', '0', '0'], ['1', '0', '0', '0', '0', '1'], ['1', '1', '0', '0', '1', '1'], ['0', '0', '0', '0', '0', '0']]","[[1, 1], [1, 5], [3, 5], [4, 0]]","{'i': [4, 4, 4, 5, 0, 2, 3, 1, 0, 3, 3, 1, 1], 'j': [1, 5, 4, 5, 0, 0, 2, 4, 3, 0, 1, 2, 0], 't': [1798, 3777.0000000001164, 5105, 5664, 6730, 7607, 8088, 8607, 9242, 10249, 10782.000000000116, 11480, 12024], 'hit': ['1', '1', '1', '0', '0', '0', '0', '1', '0', '1', '0', '0', '1'], 'b': []}","[['white', 'unknown', 'unknown', 'white', 'unknown', 'unknown'], ['black', 'black', 'white', 'unknown', 'black', 'black'], ['white', 'unknown', 'unknown', 'unknown', 'unknown', 'unknown'], ['black', 'white', 'white', 'unknown', 'unknown', 'black'], ['black', 'black', 'unknown', 'unknown', 'black', 'black'], ['unknown', 'unknown', 'unknown', 'unknown', 'unknown', 'white']]",13,0,19,,1
,survey-multi-choice,22,853771,0.0-4.0-9.0,6978f7723afd6296bd3c6be6,62b9c2f1e55fe9f17dfedc5d,6978fc55edc0f6ba1796bf39,262,2,TRUE,1,TRUE,Player 262,41,asymmetric,"",7349,"{""""Q0"""":""""... <b>more</b> white cards""""}",[0],,estimate,"","","","",,,,,
,survey-text,23,860449,0.0-4.0-10.0,6978f7723afd6296bd3c6be6,62b9c2f1e55fe9f17dfedc5d,6978fc55edc0f6ba1796bf39,262,2,TRUE,1,TRUE,Player 262,41,asymmetric,"",6676,"{""""worker_comments"""":""""""""}","",,"","","","","",,,,,
,instructions,24,864351,0.0-4.0-11.0,6978f7723afd6296bd3c6be6,62b9c2f1e55fe9f17dfedc5d,6978fc55edc0f6ba1796bf39,262,2,TRUE,1,TRUE,Player 262,41,asymmetric,"[{""""page_index"""":0,""""viewing_time"""":3902.0000000001164}]",3902.00000000012,"","",,"","","","","",,,,,
1,fullscreen,0,6154,0.0-0.0,6978f7723afd6296bd3c6be6,601171f52ffe110619bc0d93,6978fbdc407296e3cf7d05ba,263,2,FALSE,1,TRUE,Player 263,68,symmetric,"",,"","",,"","","","","",,,,,
,instructions,1,82367,0.0-1.0,6978f7723afd6296bd3c6be6,601171f52ffe110619bc0d93,6978fbdc407296e3cf7d05ba,263,2,FALSE,1,TRUE,Player 263,68,symmetric,"[{""""page_index"""":0,""""viewing_time"""":23191.700000047684},{""""page_index"""":1,""""viewing_time"""":13195.900000095367},{""""page_index"""":2,""""viewing_time"""":16444.099999904633},{""""page_index"""":3,""""viewing_time"""":11544.100000143051},{""""page_index"""":4,""""viewing_time"""":11832}]",76208.1000001431,"","",,"","","","","",,,,,
,survey-multi-choice,2,110817,0.0-2.0,6978f7723afd6296bd3c6be6,601171f52ffe110619bc0d93,6978fbdc407296e3cf7d05ba,263,2,FALSE,1,TRUE,Player 263,68,symmetric,"",28448.0999999046,"{""""Q0"""":""""... find all black cards whilst revealing as <b>few white cards</b> as possible""""}",[0],1,multichoice_part1,"","","","",,,,,
,instructions,3,187751,0.0-4.0-0.0,6978f7723afd6296bd3c6be6,601171f52ffe110619bc0d93,6978fbdc407296e3cf7d05ba,263,2,FALSE,1,TRUE,Player 263,68,symmetric,"[{""""page_index"""":0,""""viewing_time"""":76933.09999990463}]",76933.2999999523,"","",,"","","","","",,,,,
,findSquares,4,218606,0.0-4.0-1.0,6978f7723afd6296bd3c6be6,601171f52ffe110619bc0d93,6978fbdc407296e3cf7d05ba,263,2,FALSE,1,TRUE,Player 263,68,symmetric,"",,"","",,"","[['0', '0', '0', '0'], ['1', '1', '1', '1'], ['1', '1', '1', '1'], ['0', '0', '0', '0']]","[[2, 2]]","{'i': [1, 3, 1, 0, 1, 1, 2, 2, 3, 2], 'j': [1, 1, 2, 2, 3, 0, 0, 1, 2, 3], 't': [5245.099999904633, 9921.699999809265, 13257.799999952316, 16897.099999904633, 18360.89999985695, 20845.5, 23609.299999952316, 25060.699999809265, 27836.699999809265, 28844.699999809265], 'hit': ['1', '0', '1', '0', '1', '1', '1', '1', '0', '1'], 'b': []}","[['unknown', 'unknown', 'white', 'unknown'], ['black', 'black', 'black', 'black'], ['black', 'black', 'black', 'black'], ['unknown', 'white', 'white', 'unknown']]",10,0,5,,
,instructions,5,225039,0.0-4.0-2.0,6978f7723afd6296bd3c6be6,601171f52ffe110619bc0d93,6978fbdc407296e3cf7d05ba,263,2,FALSE,1,TRUE,Player 263,68,symmetric,"[{""""page_index"""":0,""""viewing_time"""":6431.200000047684}]",6431.40000009537,"","",,"","","","","",,,,,
,instructions,6,255639,0.0-4.0-3.0,6978f7723afd6296bd3c6be6,601171f52ffe110619bc0d93,6978fbdc407296e3cf7d05ba,263,2,FALSE,1,TRUE,Player 263,68,symmetric,"[{""""page_index"""":0,""""viewing_time"""":23455.599999904633},{""""page_index"""":1,""""viewing_time"""":7143.600000143051}]",30599.5,"","",,"","","","","",,,,,
,findSquares,7,305640,0.0-4.0-4.0-0.0,6978f7723afd6296bd3c6be6,601171f52ffe110619bc0d93,6978fbdc407296e3cf7d05ba,263,2,FALSE,1,TRUE,Player 263,68,symmetric,"",,"","",,non-pretend,"[['0', '0', '0', '0', '0', '0'], ['1', '1', '0', '0', '1', '1'], ['0', '0', '0', '0', '0', '0'], ['1', '0', '0', '0', '0', '1'], ['1', '1', '0', '0', '1', '1'], ['0', '0', '0', '0', '0', '0']]","[[1, 1], [1, 5], [3, 5], [4, 0]]","{'i': [2, 1, 1, 2, 2, 4, 4, 3, 3, 4, 5, 1, 0, 0, 0, 0, 5, 5, 4, 4, 2, 1, 5, 3], 'j': [5, 4, 0, 0, 1, 1, 2, 1, 4, 5, 5, 3, 1, 5, 4, 0, 0, 1, 4, 3, 4, 2, 4, 0], 't': [3497.9000000953674, 7557.099999904633, 10869.5, 13228.400000095367, 14193.900000095367, 16112.799999952316, 17297.799999952316, 18801.799999952316, 20888.599999904633, 21796.799999952316, 22520.900000095367, 26180.599999904633, 27741.200000047684, 29164.700000047684, 29980.599999904633, 31265.400000095367, 33105.40000009537, 34082.09999990463, 36733.59999990463, 39916.299999952316, 41941.5, 44696.59999990463, 46648.90000009537, 47986.09999990463], 'hit': ['0', '1', '1', '0', '0', '1', '0', '0', '0', '1', '0', '0', '0', '0', '0', '0', '0', '0', '1', '0', '0', '0', '0', '1'], 'b': []}","[['white', 'white', 'unknown', 'unknown', 'white', 'white'], ['black', 'black', 'white', 'white', 'black', 'black'], ['white', 'white', 'unknown', 'unknown', 'white', 'white'], ['black', 'white', 'unknown', 'unknown', 'white', 'black'], ['black', 'black', 'white', 'white', 'black', 'black'], ['white', 'white', 'unknown', 'unknown', 'white', 'white']]",24,0,8,,1
,instructions,8,309331,0.0-4.0-4.0-1.0,6978f7723afd6296bd3c6be6,601171f52ffe110619bc0d93,6978fbdc407296e3cf7d05ba,263,2,FALSE,1,TRUE,Player 263,68,symmetric,"[{""""page_index"""":0,""""viewing_time"""":3690}]",3690.20000004768,"","",,"","","","","",,,,,
,findSquares,9,325172,0.0-4.0-4.0-0.1,6978f7723afd6296bd3c6be6,601171f52ffe110619bc0d93,6978fbdc407296e3cf7d05ba,263,2,FALSE,1,TRUE,Player 263,68,symmetric,"",,"","",,non-pretend,"[['1', '1', '0', '0', '1', '1'], ['0', '0', '0', '0', '0', '0'], ['0', '0', '0', '0', '0', '0'], ['1', '0', '0', '0', '0', '1'], ['1', '1', '0', '0', '1', '1'], ['0', '0', '0', '0', '0', '0']]","[[0, 1], [0, 5], [4, 0], [4, 4]]","{'i': [0, 5, 3, 3, 4, 3, 4, 3, 2, 0], 'j': [0, 0, 0, 1, 1, 4, 5, 5, 5, 4], 't': [2009.2999999523163, 3340.899999856949, 4854.099999904633, 6045.299999952316, 6886.5, 9121.199999809265, 10045.199999809265, 10814.699999809265, 12326.199999809265, 13837.299999952316], 'hit': ['1', '0', '1', '0', '1', '0', '1', '1', '0', '1'], 'b': []}","[['black', 'black', 'unknown', 'unknown', 'black', 'black'], ['unknown', 'unknown', 'unknown', 'unknown', 'unknown', 'unknown'], ['unknown', 'unknown', 'unknown', 'unknown', 'unknown', 'white'], ['black', 'white', 'unknown', 'unknown', 'white', 'black'], ['black', 'black', 'unknown', 'unknown', 'black', 'black'], ['white', 'unknown', 'unknown', 'unknown', 'unknown', 'unknown']]",10,0,22,,4
,instructions,10,328379,0.0-4.0-4.0-1.1,6978f7723afd6296bd3c6be6,601171f52ffe110619bc0d93,6978fbdc407296e3cf7d05ba,263,2,FALSE,1,TRUE,Player 263,68,symmetric,"[{""""page_index"""":0,""""viewing_time"""":3206.5}]",3206.69999980927,"","",,"","","","","",,,,,
,findSquares,11,352979,0.0-4.0-4.0-0.2,6978f7723afd6296bd3c6be6,601171f52ffe110619bc0d93,6978fbdc407296e3cf7d05ba,263,2,FALSE,1,TRUE,Player 263,68,symmetric,"",,"","",,non-pretend,"[['0', '0', '0', '0', '0', '0'], ['0', '0', '0', '0', '0', '0'], ['0', '0', '1', '1', '0', '0'], ['0', '0', '1', '1', '0', '0'], ['1', '1', '0', '0', '1', '1'], ['1', '0', '0', '0', '0', '1']]","[[2, 2], [4, 1], [4, 5]]","{'i': [1, 2, 3, 4, 4, 5, 5, 3, 3, 5, 4, 2], 'j': [2, 1, 2, 2, 0, 5, 4, 5, 3, 0, 4, 3], 't': [2312.5999999046326, 3176.2999999523163, 4276, 5452.099999904633, 6399.400000095367, 8943.200000047684, 10104.099999904633, 11095.200000047684, 12958.900000095367, 15583.099999904633, 19983.200000047684, 22592.099999904633], 'hit': ['0', '0', '1', '0', '1', '1', '0', '0', '1', '1', '1', '1'], 'b': []}","[['unknown', 'unknown', 'unknown', 'unknown', 'unknown', 'unknown'], ['unknown', 'unknown', 'white', 'unknown', 'unknown', 'unknown'], ['unknown', 'white', 'black', 'black', 'unknown', 'unknown'], ['unknown', 'unknown', 'black', 'black', 'unknown', 'white'], ['black', 'black', 'white', 'unknown', 'black', 'black'], ['black', 'unknown', 'unknown', 'unknown', 'white', 'black']]",12,0,21,,2
,instructions,12,357075,0.0-4.0-4.0-1.2,6978f7723afd6296bd3c6be6,601171f52ffe110619bc0d93,6978fbdc407296e3cf7d05ba,263,2,FALSE,1,TRUE,Player 263,68,symmetric,"[{""""page_index"""":0,""""viewing_time"""":4095.2000000476837}]",4095.5,"","",,"","","","","",,,,,
,findSquares,13,379105,0.0-4.0-4.0-0.3,6978f7723afd6296bd3c6be6,601171f52ffe110619bc0d93,6978fbdc407296e3cf7d05ba,263,2,FALSE,1,TRUE,Player 263,68,symmetric,"",,"","",,non-pretend,"[['0', '0', '0', '0', '0', '0'], ['0', '0', '1', '1', '0', '0'], ['0', '0', '1', '1', '0', '0'], ['0', '1', '0', '0', '1', '0'], ['0', '1', '0', '0', '1', '0'], ['0', '1', '0', '0', '1', '0']]","[[1, 2], [4, 4], [5, 1]]","{'i': [0, 1, 2, 2, 1, 4, 4, 5, 5, 5, 4, 4, 5, 4, 3, 3], 'j': [2, 1, 2, 3, 3, 3, 5, 4, 5, 2, 1, 0, 0, 2, 1, 4], 't': [2566.7999999523163, 3483.199999809265, 4254.5, 5799.599999904633, 6599.799999952316, 8979.299999952316, 9702.299999952316, 10638.5, 11790.5, 13766.399999856949, 14382.299999952316, 15693.899999856949, 16351.5, 17373.89999985695, 18407.5, 20022.299999952316], 'hit': ['0', '0', '1', '1', '1', '0', '0', '1', '0', '0', '1', '0', '0', '0', '1', '1'], 'b': []}","[['unknown', 'unknown', 'white', 'unknown', 'unknown', 'unknown'], ['unknown', 'white', 'black', 'black', 'unknown', 'unknown'], ['unknown', 'unknown', 'black', 'black', 'unknown', 'unknown'], ['unknown', 'black', 'unknown', 'unknown', 'black', 'unknown'], ['white', 'black', 'white', 'white', 'black', 'white'], ['white', 'black', 'white', 'unknown', 'black', 'white']]",16,0,17,,3
,instructions,14,384767,0.0-4.0-4.0-1.3,6978f7723afd6296bd3c6be6,601171f52ffe110619bc0d93,6978fbdc407296e3cf7d05ba,263,2,FALSE,1,TRUE,Player 263,68,symmetric,"[{""""page_index"""":0,""""viewing_time"""":5661.900000095367}]",5662,"","",,"","","","","",,,,,
,instructions,15,389483,0.0-4.0-5.0,6978f7723afd6296bd3c6be6,601171f52ffe110619bc0d93,6978fbdc407296e3cf7d05ba,263,2,FALSE,1,TRUE,Player 263,68,symmetric,"[{""""page_index"""":0,""""viewing_time"""":4715.599999904633}]",4715.79999995232,"","",,"","","","","",,,,,
,instructions,16,424387,0.0-4.0-6.0-0.0,6978f7723afd6296bd3c6be6,601171f52ffe110619bc0d93,6978fbdc407296e3cf7d05ba,263,2,FALSE,1,TRUE,Player 263,68,symmetric,"[{""""page_index"""":0,""""viewing_time"""":6375.399999856949},{""""page_index"""":1,""""viewing_time"""":14488.300000190735},{""""page_index"""":2,""""viewing_time"""":3135.699999809265},{""""page_index"""":3,""""viewing_time"""":10904.5}]",34904,"","",,"","","","","",,,,,
,survey-multi-choice,17,428228,0.0-4.0-6.0-1.0,6978f7723afd6296bd3c6be6,601171f52ffe110619bc0d93,6978fbdc407296e3cf7d05ba,263,2,FALSE,1,TRUE,Player 263,68,symmetric,"",3839.5,"{""""Q0"""":""""... find all black cards whilst revealing as <b>few white</b> cards as possible""""}",[0],0,multichoice_reconstruction,"","","","",,,,,
,instructions,18,445107,0.0-4.0-6.1-0.1,6978f7723afd6296bd3c6be6,601171f52ffe110619bc0d93,6978fbdc407296e3cf7d05ba,263,2,FALSE,1,TRUE,Player 263,68,symmetric,"[{""""page_index"""":0,""""viewing_time"""":2117.0999999046326},{""""page_index"""":1,""""viewing_time"""":5972.100000143051},{""""page_index"""":2,""""viewing_time"""":2323.7999999523163},{""""page_index"""":3,""""viewing_time"""":6464.099999904633}]",16877.2999999523,"","",,"","","","","",,,,,
,survey-multi-choice,19,453092,0.0-4.0-6.1-1.1,6978f7723afd6296bd3c6be6,601171f52ffe110619bc0d93,6978fbdc407296e3cf7d05ba,263,2,FALSE,1,TRUE,Player 263,68,symmetric,"",7984.19999980927,"{""""Q0"""":""""... find all black cards whilst revealing as <b>few white</b> cards as possible""""}",[0],0,multichoice_reconstruction,"","","","",,,,,
,instructions,20,469923,0.0-4.0-7.0,6978f7723afd6296bd3c6be6,601171f52ffe110619bc0d93,6978fbdc407296e3cf7d05ba,263,2,FALSE,1,TRUE,Player 263,68,symmetric,"[{""""page_index"""":0,""""viewing_time"""":16830}]",16830.2000000477,"","",,"","","","","",,,,,
,findSquares,21,490550,0.0-4.0-8.0,6978f7723afd6296bd3c6be6,601171f52ffe110619bc0d93,6978fbdc407296e3cf7d05ba,263,2,FALSE,1,TRUE,Player 263,68,symmetric,"",,"","",,memory,"[['0', '0', '0', '0', '0', '0'], ['1', '1', '0', '0', '1', '1'], ['0', '0', '0', '0', '0', '0'], ['1', '0', '0', '0', '0', '1'], ['1', '1', '0', '0', '1', '1'], ['0', '0', '0', '0', '0', '0']]","[[1, 1], [1, 5], [3, 5], [4, 0]]","{'i': [1, 4, 5, 1, 5, 5, 4, 3, 3, 2, 4], 'j': [4, 5, 5, 0, 0, 1, 1, 1, 0, 0, 4], 't': [1853.6000001430511, 4047, 7190.400000095367, 9053.600000143051, 11430.299999952316, 12127.100000143051, 12717.5, 14685.900000095367, 15933.700000047684, 17005.5, 18621.700000047684], 'hit': ['1', '1', '0', '1', '0', '0', '1', '0', '1', '0', '1'], 'b': []}","[['unknown', 'unknown', 'unknown', 'unknown', 'unknown', 'unknown'], ['black', 'black', 'unknown', 'unknown', 'black', 'black'], ['white', 'unknown', 'unknown', 'unknown', 'unknown', 'unknown'], ['black', 'white', 'unknown', 'unknown', 'unknown', 'black'], ['black', 'black', 'unknown', 'unknown', 'black', 'black'], ['white', 'white', 'unknown', 'unknown', 'unknown', 'white']]",11,0,21,,1
,survey-multi-choice,22,499296,0.0-4.0-9.0,6978f7723afd6296bd3c6be6,601171f52ffe110619bc0d93,6978fbdc407296e3cf7d05ba,263,2,FALSE,1,TRUE,Player 263,68,symmetric,"",8745.69999980927,"{""""Q0"""":""""... <b>the same number of</b> white cards""""}",[0],,estimate,"","","","",,,,,
,survey-text,23,507388,0.0-4.0-10.0,6978f7723afd6296bd3c6be6,601171f52ffe110619bc0d93,6978fbdc407296e3cf7d05ba,263,2,FALSE,1,TRUE,Player 263,68,symmetric,"",8087,"{""""worker_comments"""":""""no""""}","",,"","","","","",,,,,
,instructions,24,518219,0.0-4.0-11.0,6978f7723afd6296bd3c6be6,601171f52ffe110619bc0d93,6978fbdc407296e3cf7d05ba,263,2,FALSE,1,TRUE,Player 263,68,symmetric,"[{""""page_index"""":0,""""viewing_time"""":10830.099999904633}]",10830.4000000954,"","",,"","","","","",,,,,
1,fullscreen,0,3814,0.0-0.0,6978f7723afd6296bd3c6be6,5b780cc655f12e0001b4d85a,6978fc7f77740baee1447d50,264,1,TRUE,1,TRUE,Player 264,24,asymmetric,"",,"","",,"","","","","",,,,,
,instructions,1,44414,0.0-1.0,6978f7723afd6296bd3c6be6,5b780cc655f12e0001b4d85a,6978fc7f77740baee1447d50,264,1,TRUE,1,TRUE,Player 264,24,asymmetric,"[{""""page_index"""":0,""""viewing_time"""":7706.0999999940395},{""""page_index"""":1,""""viewing_time"""":5827.0999999940395},{""""page_index"""":2,""""viewing_time"""":18509.20000000298},{""""page_index"""":3,""""viewing_time"""":4162.5},{""""page_index"""":4,""""viewing_time"""":4392.600000008941}]",40598.599999994,"","",,"","","","","",,,,,
,survey-multi-choice,2,60796,0.0-2.0,6978f7723afd6296bd3c6be6,5b780cc655f12e0001b4d85a,6978fc7f77740baee1447d50,264,1,TRUE,1,TRUE,Player 264,24,asymmetric,"",16378,"{""""Q0"""":""""... find all black cards whilst revealing as <b>few white cards</b> as possible""""}",[0],1,multichoice_part1,"","","","",,,,,
,instructions,3,63458,0.0-4.0-0.0,6978f7723afd6296bd3c6be6,5b780cc655f12e0001b4d85a,6978fc7f77740baee1447d50,264,1,TRUE,1,TRUE,Player 264,24,asymmetric,"[{""""page_index"""":0,""""viewing_time"""":2658}]",2658.90000000596,"","",,"","","","","",,,,,
,findSquares,4,80814,0.0-4.0-1.0,6978f7723afd6296bd3c6be6,5b780cc655f12e0001b4d85a,6978fc7f77740baee1447d50,264,1,TRUE,1,TRUE,Player 264,24,asymmetric,"",,"","",,"","[['0', '0', '0', '0'], ['1', '1', '1', '1'], ['1', '1', '1', '1'], ['0', '0', '0', '0']]","[[2, 2]]","{'i': [1, 3, 1, 0, 0, 0, 1, 1, 2, 2, 2], 'j': [1, 0, 0, 2, 3, 0, 2, 3, 3, 1, 0], 't': [2078, 3688.4000000059605, 5280.70000000298, 6652.4000000059605, 7648.600000008941, 9076.20000000298, 10368.300000011921, 11362.10000000894, 13450.300000011921, 14502.300000011921, 15330.60000000894], 'hit': ['1', '0', '1', '0', '0', '0', '1', '1', '1', '1', '1'], 'b': []}","[['white', 'unknown', 'white', 'white'], ['black', 'black', 'black', 'black'], ['black', 'black', 'black', 'black'], ['white', 'unknown', 'unknown', 'unknown']]",11,0,4,,
,instructions,5,84896,0.0-4.0-2.0,6978f7723afd6296bd3c6be6,5b780cc655f12e0001b4d85a,6978fc7f77740baee1447d50,264,1,TRUE,1,TRUE,Player 264,24,asymmetric,"[{""""page_index"""":0,""""viewing_time"""":4081}]",4081.60000000894,"","",,"","","","","",,,,,
,instructions,6,103430,0.0-4.0-3.0,6978f7723afd6296bd3c6be6,5b780cc655f12e0001b4d85a,6978fc7f77740baee1447d50,264,1,TRUE,1,TRUE,Player 264,24,asymmetric,"[{""""page_index"""":0,""""viewing_time"""":15851.09999999404},{""""page_index"""":1,""""viewing_time"""":2680.2000000029802}]",18532.200000003,"","",,"","","","","",,,,,
,findSquares,7,136163,0.0-4.0-4.0-0.0,6978f7723afd6296bd3c6be6,5b780cc655f12e0001b4d85a,6978fc7f77740baee1447d50,264,1,TRUE,1,TRUE,Player 264,24,asymmetric,"",,"","",,non-pretend,"[['0', '0', '0', '0', '0', '0'], ['1', '1', '0', '0', '1', '1'], ['0', '0', '0', '0', '0', '0'], ['1', '0', '0', '0', '0', '1'], ['1', '1', '0', '0', '1', '1'], ['0', '0', '0', '0', '0', '0']]","[[1, 1], [1, 5], [3, 5], [4, 0]]","{'i': [1, 2, 1, 0, 1, 5, 4, 3, 4, 2, 2, 5, 3, 0, 0, 3, 3, 0, 1, 4], 'j': [4, 1, 2, 0, 0, 0, 1, 4, 5, 5, 4, 3, 3, 3, 5, 0, 1, 1, 3, 4], 't': [1980.2000000029802, 4062.9000000059605, 5555.4000000059605, 7233.800000011921, 8112.600000008941, 12315.40000000596, 13166.300000011921, 14284.40000000596, 15527.60000000894, 18005.40000000596, 18959.40000000596, 21199.5, 22301.30000001192, 23465.60000000894, 24439.40000000596, 25653.30000001192, 26643.20000000298, 27896.40000000596, 29639.5, 30719], 'hit': ['1', '0', '0', '0', '1', '0', '1', '0', '1', '0', '0', '0', '0', '0', '0', '1', '0', '0', '0', '1'], 'b': []}","[['white', 'white', 'unknown', 'white', 'unknown', 'white'], ['black', 'black', 'white', 'white', 'black', 'black'], ['unknown', 'white', 'unknown', 'unknown', 'white', 'white'], ['black', 'white', 'unknown', 'white', 'white', 'black'], ['black', 'black', 'unknown', 'unknown', 'black', 'black'], ['white', 'unknown', 'unknown', 'white', 'unknown', 'unknown']]",20,0,12,,1
,instructions,8,138910,0.0-4.0-4.0-1.0,6978f7723afd6296bd3c6be6,5b780cc655f12e0001b4d85a,6978fc7f77740baee1447d50,264,1,TRUE,1,TRUE,Player 264,24,asymmetric,"[{""""page_index"""":0,""""viewing_time"""":2745.7000000029802}]",2746.90000000596,"","",,"","","","","",,,,,
,findSquares,9,179231,0.0-4.0-4.0-0.1,6978f7723afd6296bd3c6be6,5b780cc655f12e0001b4d85a,6978fc7f77740baee1447d50,264,1,TRUE,1,TRUE,Player 264,24,asymmetric,"",,"","",,non-pretend,"[['0', '0', '0', '0', '0', '0'], ['0', '0', '1', '1', '0', '0'], ['0', '0', '1', '0', '0', '0'], ['0', '1', '0', '0', '1', '0'], ['0', '1', '0', '0', '1', '1'], ['0', '1', '0', '0', '1', '0']]","[[1, 2], [4, 4], [5, 1]]","{'i': [2, 4, 5, 4, 1, 2, 3, 3, 3, 0, 1, 2, 4, 0, 2, 5, 4, 3, 2, 0, 1, 2, 0, 4], 'j': [2, 1, 4, 3, 4, 3, 1, 3, 4, 2, 1, 0, 0, 5, 5, 5, 2, 2, 1, 1, 3, 4, 4, 5], 't': [2386.7000000029802, 4031.5, 5309.70000000298, 9713.79999999702, 13492.5, 14513.5, 15860.70000000298, 18049.39999999106, 19108.79999999702, 22036.20000000298, 22808.89999999106, 23954.59999999404, 25306.79999999702, 26783.59999999404, 28064.20000000298, 30083.29999999702, 31549.59999999404, 32420.29999999702, 33234.59999999404, 34333.89999999106, 35194.89999999106, 36122.89999999106, 37222.79999999702, 38300.09999999404], 'hit': ['1', '1', '1', '0', '0', '0', '1', '0', '1', '0', '0', '0', '0', '0', '0', '0', '0', '0', '0', '0', '1', '0', '0', '1'], 'b': []}","[['unknown', 'white', 'white', 'unknown', 'white', 'white'], ['unknown', 'white', 'black', 'black', 'white', 'unknown'], ['white', 'white', 'black', 'white', 'white', 'white'], ['unknown', 'black', 'white', 'white', 'black', 'unknown'], ['white', 'black', 'white', 'white', 'black', 'black'], ['unknown', 'black', 'unknown', 'unknown', 'black', 'white']]",24,0,9,,9
,instructions,10,182500,0.0-4.0-4.0-1.1,6978f7723afd6296bd3c6be6,5b780cc655f12e0001b4d85a,6978fc7f77740baee1447d50,264,1,TRUE,1,TRUE,Player 264,24,asymmetric,"[{""""page_index"""":0,""""viewing_time"""":3267.2000000029802}]",3268.09999999404,"","",,"","","","","",,,,,
,findSquares,11,218312,0.0-4.0-4.0-0.2,6978f7723afd6296bd3c6be6,5b780cc655f12e0001b4d85a,6978fc7f77740baee1447d50,264,1,TRUE,1,TRUE,Player 264,24,asymmetric,"",,"","",,non-pretend,"[['1', '1', '1', '0', '0', '1'], ['0', '0', '0', '0', '0', '1'], ['0', '0', '0', '0', '0', '0'], ['0', '0', '0', '0', '1', '0'], ['1', '1', '0', '1', '1', '0'], ['0', '0', '0', '0', '0', '0']]","[[0, 1], [0, 5], [4, 0], [4, 4]]","{'i': [0, 0, 1, 5, 4, 3, 3, 5, 4, 4, 3, 2, 1, 1, 2, 1, 5, 5, 2, 2, 0, 5, 3, 3, 3, 2, 1, 0, 1, 2, 4], 'j': [0, 4, 5, 4, 5, 4, 0, 0, 1, 2, 2, 3, 3, 2, 1, 0, 3, 2, 4, 5, 3, 5, 5, 3, 1, 0, 1, 2, 4, 2, 3], 't': [2185.699999988079, 3107.7999999970198, 3873.5, 5192.899999991059, 5827.899999991059, 6720.399999991059, 7961.79999999702, 8677.79999999702, 9248.09999999404, 10039, 11026.199999988079, 12105.59999999404, 12972.89999999106, 14392.39999999106, 15116.09999999404, 15980.09999999404, 19373, 20372.79999999702, 22274.89999999106, 23006, 24089.39999999106, 26132.19999998808, 27110.19999998808, 27906.09999999404, 28956.39999999106, 29873.39999999106, 30459.09999999404, 31061.5, 32448.19999998808, 33148.09999999404, 33800.19999998808], 'hit': ['1', '0', '1', '0', '0', '1', '0', '0', '1', '0', '0', '0', '0', '0', '0', '0', '0', '0', '0', '0', '0', '0', '0', '0', '0', '0', '0', '1', '0', '0', '1'], 'b': []}","[['black', 'black', 'black', 'white', 'white', 'black'], ['white', 'white', 'white', 'white', 'white', 'black'], ['white', 'white', 'white', 'white', 'white', 'white'], ['white', 'white', 'white', 'white', 'black', 'white'], ['black', 'black', 'white', 'black', 'black', 'white'], ['white', 'unknown', 'white', 'white', 'white', 'white']]",31,0,1,,10
,instructions,12,220384,0.0-4.0-4.0-1.2,6978f7723afd6296bd3c6be6,5b780cc655f12e0001b4d85a,6978fc7f77740baee1447d50,264,1,TRUE,1,TRUE,Player 264,24,asymmetric,"[{""""page_index"""":0,""""viewing_time"""":2070.5}]",2071.79999999702,"","",,"","","","","",,,,,
,findSquares,13,260345,0.0-4.0-4.0-0.3,6978f7723afd6296bd3c6be6,5b780cc655f12e0001b4d85a,6978fc7f77740baee1447d50,264,1,TRUE,1,TRUE,Player 264,24,asymmetric,"",,"","",,non-pretend,"[['0', '0', '0', '0', '0', '0'], ['0', '0', '0', '0', '0', '0'], ['0', '1', '1', '1', '0', '0'], ['0', '0', '1', '0', '0', '1'], ['1', '1', '0', '0', '0', '1'], ['1', '0', '0', '0', '0', '1']]","[[2, 2], [4, 1], [4, 5]]","{'i': [2, 4, 4, 4, 3, 3, 5, 1, 1, 3, 5, 5, 2, 1, 1, 1, 0, 0, 1, 2, 2, 3, 3, 4, 2, 0, 5, 3, 0, 0, 5], 'j': [3, 2, 0, 4, 4, 5, 5, 0, 5, 1, 1, 4, 4, 4, 3, 2, 2, 1, 1, 1, 0, 2, 3, 3, 5, 5, 2, 0, 0, 3, 0], 't': [3142.2000000029802, 4142.0999999940395, 5112, 6332.20000000298, 6916.20000000298, 7448.0999999940395, 8239.20000000298, 11927.70000000298, 13173.79999999702, 15243.59999999404, 17013.90000000596, 17907.90000000596, 19471.59999999404, 20275.40000000596, 20971.40000000596, 21552.29999999702, 22227.79999999702, 23014.20000000298, 23542.70000000298, 24078.70000000298, 25038.20000000298, 26115.70000000298, 26850.5, 27546, 28744, 29674.79999999702, 31138.5, 32138.70000000298, 33268.5, 35748.20000000298, 37948.09999999404], 'hit': ['1', '0', '1', '0', '0', '1', '1', '0', '0', '0', '0', '0', '0', '0', '0', '0', '0', '0', '0', '1', '0', '1', '0', '0', '0', '0', '0', '0', '0', '0', '1'], 'b': []}","[['white', 'white', 'white', 'white', 'unknown', 'white'], ['white', 'white', 'white', 'white', 'white', 'white'], ['white', 'black', 'black', 'black', 'white', 'white'], ['white', 'white', 'black', 'white', 'white', 'black'], ['black', 'black', 'white', 'white', 'white', 'black'], ['black', 'white', 'white', 'unknown', 'white', 'black']]",31,0,2,,8
,instructions,14,262735,0.0-4.0-4.0-1.3,6978f7723afd6296bd3c6be6,5b780cc655f12e0001b4d85a,6978fc7f77740baee1447d50,264,1,TRUE,1,TRUE,Player 264,24,asymmetric,"[{""""page_index"""":0,""""viewing_time"""":2388.2999999970198}]",2389.19999998808,"","",,"","","","","",,,,,
,instructions,15,264468,0.0-4.0-5.0,6978f7723afd6296bd3c6be6,5b780cc655f12e0001b4d85a,6978fc7f77740baee1447d50,264,1,TRUE,1,TRUE,Player 264,24,asymmetric,"[{""""page_index"""":0,""""viewing_time"""":1731.5999999940395}]",1732.59999999404,"","",,"","","","","",,,,,
,instructions,16,284571,0.0-4.0-6.0-0.0,6978f7723afd6296bd3c6be6,5b780cc655f12e0001b4d85a,6978fc7f77740baee1447d50,264,1,TRUE,1,TRUE,Player 264,24,asymmetric,"[{""""page_index"""":0,""""viewing_time"""":3489.699999988079},{""""page_index"""":1,""""viewing_time"""":7634.4000000059605},{""""page_index"""":2,""""viewing_time"""":2111.9000000059605},{""""page_index"""":3,""""viewing_time"""":6865.399999991059}]",20102.099999994,"","",,"","","","","",,,,,
,survey-multi-choice,17,291042,0.0-4.0-6.0-1.0,6978f7723afd6296bd3c6be6,5b780cc655f12e0001b4d85a,6978fc7f77740baee1447d50,264,1,TRUE,1,TRUE,Player 264,24,asymmetric,"",6467,"{""""Q0"""":""""... <b>repeat</b> my clicks from the first round, in the same order""""}",[0],1,multichoice_reconstruction,"","","","",,,,,
,instructions,18,295731,0.0-4.0-7.0,6978f7723afd6296bd3c6be6,5b780cc655f12e0001b4d85a,6978fc7f77740baee1447d50,264,1,TRUE,1,TRUE,Player 264,24,asymmetric,"[{""""page_index"""":0,""""viewing_time"""":4686}]",4686.59999999404,"","",,"","","","","",,,,,
,findSquares,19,324694,0.0-4.0-8.0,6978f7723afd6296bd3c6be6,5b780cc655f12e0001b4d85a,6978fc7f77740baee1447d50,264,1,TRUE,1,TRUE,Player 264,24,asymmetric,"",,"","",,memory,"[['0', '0', '0', '0', '0', '0'], ['1', '1', '0', '0', '1', '1'], ['0', '0', '0', '0', '0', '0'], ['1', '0', '0', '0', '0', '1'], ['1', '1', '0', '0', '1', '1'], ['0', '0', '0', '0', '0', '0']]","[[1, 1], [1, 5], [3, 5], [4, 0]]","{'i': [1, 1, 3, 4, 1, 2, 3, 2, 4, 5, 5, 3, 4, 3], 'j': [2, 4, 4, 1, 0, 1, 3, 4, 5, 2, 1, 1, 4, 0], 't': [1639.4000000059605, 3810.4000000059605, 4814.70000000298, 6238.20000000298, 9016.800000011921, 11744.800000011921, 13043.90000000596, 14088, 15559, 21991.30000001192, 22813, 24244.10000000894, 25278.70000000298, 26944.30000001192], 'hit': ['0', '1', '0', '1', '1', '0', '0', '0', '1', '0', '0', '0', '1', '1'], 'b': []}","[['unknown', 'unknown', 'unknown', 'unknown', 'unknown', 'unknown'], ['black', 'black', 'white', 'unknown', 'black', 'black'], ['unknown', 'white', 'unknown', 'unknown', 'white', 'unknown'], ['black', 'white', 'unknown', 'white', 'white', 'black'], ['black', 'black', 'unknown', 'unknown', 'black', 'black'], ['unknown', 'white', 'white', 'unknown', 'unknown', 'unknown']]",14,0,18,,1
,survey-multi-choice,20,335812,0.0-4.0-9.0,6978f7723afd6296bd3c6be6,5b780cc655f12e0001b4d85a,6978fc7f77740baee1447d50,264,1,TRUE,1,TRUE,Player 264,24,asymmetric,"",11116,"{""""Q0"""":""""... <b>fewer</b> white cards""""}",[0],,estimate,"","","","",,,,,
,survey-text,21,339920,0.0-4.0-10.0,6978f7723afd6296bd3c6be6,5b780cc655f12e0001b4d85a,6978fc7f77740baee1447d50,264,1,TRUE,1,TRUE,Player 264,24,asymmetric,"",4099.09999999404,"{""""worker_comments"""":""""""""}","",,"","","","","",,,,,
,instructions,22,345560,0.0-4.0-11.0,6978f7723afd6296bd3c6be6,5b780cc655f12e0001b4d85a,6978fc7f77740baee1447d50,264,1,TRUE,1,TRUE,Player 264,24,asymmetric,"[{""""page_index"""":0,""""viewing_time"""":5637.9000000059605}]",5638.80000001192,"","",,"","","","","",,,,,
1,fullscreen,0,5242,0.0-0.0,6978f7723afd6296bd3c6be6,5f57be602095072bb238a7ab,6978fcbfcbc5e802a9122ff5,265,1,TRUE,1,TRUE,Player 265,54,asymmetric,"",,"","",,"","","","","",,,,,
,instructions,1,41354,0.0-1.0,6978f7723afd6296bd3c6be6,5f57be602095072bb238a7ab,6978fcbfcbc5e802a9122ff5,265,1,TRUE,1,TRUE,Player 265,54,asymmetric,"[{""""page_index"""":0,""""viewing_time"""":13802.5},{""""page_index"""":1,""""viewing_time"""":4388.800000190735},{""""page_index"""":2,""""viewing_time"""":5887.800000190735},{""""page_index"""":3,""""viewing_time"""":4555.89999961853},{""""page_index"""":4,""""viewing_time"""":7474.5}]",36110.2000002861,"","",,"","","","","",,,,,
,survey-multi-choice,2,47127,0.0-2.0,6978f7723afd6296bd3c6be6,5f57be602095072bb238a7ab,6978fcbfcbc5e802a9122ff5,265,1,TRUE,1,TRUE,Player 265,54,asymmetric,"",5771.10000038147,"{""""Q0"""":""""... find all black cards whilst revealing as <b>few white cards</b> as possible""""}",[0],1,multichoice_part1,"","","","",,,,,
,instructions,3,48435,0.0-4.0-0.0,6978f7723afd6296bd3c6be6,5f57be602095072bb238a7ab,6978fcbfcbc5e802a9122ff5,265,1,TRUE,1,TRUE,Player 265,54,asymmetric,"[{""""page_index"""":0,""""viewing_time"""":1307.4000000953674}]",1307.90000009537,"","",,"","","","","",,,,,
,findSquares,4,62916,0.0-4.0-1.0,6978f7723afd6296bd3c6be6,5f57be602095072bb238a7ab,6978fcbfcbc5e802a9122ff5,265,1,TRUE,1,TRUE,Player 265,54,asymmetric,"",,"","",,"","[['0', '0', '0', '0'], ['1', '1', '1', '1'], ['1', '1', '1', '1'], ['0', '0', '0', '0']]","[[2, 2]]","{'i': [1, 1, 1, 2, 2, 3, 3, 0, 0, 1, 2], 'j': [1, 2, 3, 3, 1, 1, 2, 2, 3, 0, 0], 't': [2629.5999999046326, 3764.5, 4689.400000095367, 5635.799999713898, 6973.799999713898, 7849.400000095367, 8933.799999713898, 9892.599999904633, 10716.099999904633, 11719.5, 12463.900000095367], 'hit': ['1', '1', '1', '1', '1', '0', '0', '0', '0', '1', '1'], 'b': []}","[['unknown', 'unknown', 'white', 'white'], ['black', 'black', 'black', 'black'], ['black', 'black', 'black', 'black'], ['unknown', 'white', 'white', 'unknown']]",11,0,4,,
,instructions,5,64571,0.0-4.0-2.0,6978f7723afd6296bd3c6be6,5f57be602095072bb238a7ab,6978fcbfcbc5e802a9122ff5,265,1,TRUE,1,TRUE,Player 265,54,asymmetric,"[{""""page_index"""":0,""""viewing_time"""":1654.5}]",1654.80000019073,"","",,"","","","","",,,,,
,instructions,6,72394,0.0-4.0-3.0,6978f7723afd6296bd3c6be6,5f57be602095072bb238a7ab,6978fcbfcbc5e802a9122ff5,265,1,TRUE,1,TRUE,Player 265,54,asymmetric,"[{""""page_index"""":0,""""viewing_time"""":6585.099999904633},{""""page_index"""":1,""""viewing_time"""":1237.1999998092651}]",7822.69999980927,"","",,"","","","","",,,,,
,findSquares,7,99359,0.0-4.0-4.0-0.0,6978f7723afd6296bd3c6be6,5f57be602095072bb238a7ab,6978fcbfcbc5e802a9122ff5,265,1,TRUE,1,TRUE,Player 265,54,asymmetric,"",,"","",,non-pretend,"[['0', '0', '0', '0', '0', '0'], ['1', '1', '0', '0', '1', '1'], ['0', '0', '0', '0', '0', '0'], ['1', '0', '0', '0', '0', '1'], ['1', '1', '0', '0', '1', '1'], ['0', '0', '0', '0', '0', '0']]","[[1, 1], [1, 5], [3, 5], [4, 0]]","{'i': [1, 3, 1, 1, 1, 2, 2, 4, 4, 5, 4, 5, 3, 0, 0, 0, 2, 2, 2, 3, 2, 3, 4, 5, 4, 5, 5, 5, 3], 'j': [4, 4, 3, 0, 2, 1, 0, 1, 5, 5, 2, 1, 1, 1, 2, 4, 5, 4, 3, 2, 2, 3, 3, 3, 4, 4, 2, 0, 0], 't': [1155, 2044.6999998092651, 3651.2999997138977, 4744.699999809265, 5654.299999713898, 6395.099999904633, 7247.299999713898, 8472.299999713898, 9910.299999713898, 11548.400000095367, 12569.099999904633, 13383.5, 14102.299999713898, 15051.299999713898, 15749.699999809265, 16396.699999809265, 17116.799999713898, 17619.299999713898, 18490.900000095367, 19168.699999809265, 19635.5, 20100.699999809265, 21331.099999904633, 21773.699999809265, 22436.199999809265, 22975, 23642.900000095367, 24284.900000095367, 24960.299999713898], 'hit': ['1', '0', '0', '1', '0', '0', '0', '1', '1', '0', '0', '0', '0', '0', '0', '0', '0', '0', '0', '0', '0', '0', '0', '0', '1', '0', '0', '0', '1'], 'b': []}","[['unknown', 'white', 'white', 'unknown', 'white', 'unknown'], ['black', 'black', 'white', 'white', 'black', 'black'], ['white', 'white', 'white', 'white', 'white', 'white'], ['black', 'white', 'white', 'white', 'white', 'black'], ['black', 'black', 'white', 'white', 'black', 'black'], ['white', 'white', 'white', 'white', 'white', 'white']]",29,0,3,,1
,instructions,8,100974,0.0-4.0-4.0-1.0,6978f7723afd6296bd3c6be6,5f57be602095072bb238a7ab,6978fcbfcbc5e802a9122ff5,265,1,TRUE,1,TRUE,Player 265,54,asymmetric,"[{""""page_index"""":0,""""viewing_time"""":1614.0999999046326}]",1614.59999990463,"","",,"","","","","",,,,,
,findSquares,9,124267,0.0-4.0-4.0-0.1,6978f7723afd6296bd3c6be6,5f57be602095072bb238a7ab,6978fcbfcbc5e802a9122ff5,265,1,TRUE,1,TRUE,Player 265,54,asymmetric,"",,"","",,non-pretend,"[['1', '1', '1', '0', '0', '1'], ['0', '0', '0', '0', '0', '1'], ['0', '0', '0', '0', '0', '0'], ['0', '0', '0', '0', '1', '0'], ['1', '1', '0', '1', '1', '0'], ['0', '0', '0', '0', '0', '0']]","[[0, 1], [0, 5], [4, 0], [4, 4]]","{'i': [0, 0, 1, 4, 4, 4, 3, 3, 5, 5, 4, 3, 1, 1, 1, 0], 'j': [0, 4, 5, 5, 3, 1, 1, 0, 0, 1, 2, 4, 1, 4, 0, 2], 't': [1519.5999999046326, 3307.9000000953674, 4087.9000000953674, 5032.400000095367, 5945.199999809265, 7143.099999904633, 8089.699999809265, 8889.599999904633, 9728.099999904633, 10456.199999809265, 11504, 14189.099999904633, 15456.199999809265, 17230.5, 18853.599999904633, 21284.299999713898], 'hit': ['1', '0', '1', '0', '1', '1', '0', '0', '0', '0', '0', '1', '0', '0', '0', '1'], 'b': []}","[['black', 'black', 'black', 'unknown', 'white', 'black'], ['white', 'white', 'unknown', 'unknown', 'white', 'black'], ['unknown', 'unknown', 'unknown', 'unknown', 'unknown', 'unknown'], ['white', 'white', 'unknown', 'unknown', 'black', 'unknown'], ['black', 'black', 'white', 'black', 'black', 'white'], ['white', 'white', 'unknown', 'unknown', 'unknown', 'unknown']]",16,0,16,,10
,instructions,10,126452,0.0-4.0-4.0-1.1,6978f7723afd6296bd3c6be6,5f57be602095072bb238a7ab,6978fcbfcbc5e802a9122ff5,265,1,TRUE,1,TRUE,Player 265,54,asymmetric,"[{""""page_index"""":0,""""viewing_time"""":2184.2000002861023}]",2184.59999990463,"","",,"","","","","",,,,,
,findSquares,11,150391,0.0-4.0-4.0-0.2,6978f7723afd6296bd3c6be6,5f57be602095072bb238a7ab,6978fcbfcbc5e802a9122ff5,265,1,TRUE,1,TRUE,Player 265,54,asymmetric,"",,"","",,non-pretend,"[['0', '0', '0', '0', '0', '0'], ['0', '0', '1', '1', '0', '0'], ['0', '0', '1', '0', '0', '0'], ['0', '1', '0', '0', '1', '0'], ['0', '1', '0', '0', '1', '1'], ['0', '1', '0', '0', '1', '0']]","[[1, 2], [4, 4], [5, 1]]","{'i': [1, 4, 4, 3, 2, 4, 4, 3, 2, 0, 0, 1, 1, 0, 5, 5], 'j': [3, 1, 5, 4, 2, 2, 0, 1, 4, 1, 0, 1, 4, 5, 3, 4], 't': [1723.1999998092651, 3311, 5019.89999961853, 5908.099999904633, 7239.699999809265, 8556.299999713898, 9727.799999713898, 10669.39999961853, 14233.299999713898, 15607.299999713898, 16242.39999961853, 17042.299999713898, 18321.699999809265, 18969.5, 20686.599999904633, 21927.299999713898], 'hit': ['1', '1', '1', '1', '1', '0', '0', '1', '0', '0', '0', '0', '0', '0', '0', '1'], 'b': []}","[['white', 'white', 'unknown', 'unknown', 'unknown', 'white'], ['unknown', 'white', 'black', 'black', 'white', 'unknown'], ['unknown', 'unknown', 'black', 'unknown', 'white', 'unknown'], ['unknown', 'black', 'unknown', 'unknown', 'black', 'unknown'], ['white', 'black', 'white', 'unknown', 'black', 'black'], ['unknown', 'black', 'unknown', 'white', 'black', 'unknown']]",16,0,17,,9
,instructions,12,151310,0.0-4.0-4.0-1.2,6978f7723afd6296bd3c6be6,5f57be602095072bb238a7ab,6978fcbfcbc5e802a9122ff5,265,1,TRUE,1,TRUE,Player 265,54,asymmetric,"[{""""page_index"""":0,""""viewing_time"""":917.5}]",917.900000095367,"","",,"","","","","",,,,,
,findSquares,13,170802,0.0-4.0-4.0-0.3,6978f7723afd6296bd3c6be6,5f57be602095072bb238a7ab,6978fcbfcbc5e802a9122ff5,265,1,TRUE,1,TRUE,Player 265,54,asymmetric,"",,"","",,non-pretend,"[['0', '0', '0', '0', '0', '0'], ['0', '0', '0', '0', '0', '0'], ['0', '1', '1', '1', '0', '0'], ['0', '0', '1', '0', '0', '1'], ['1', '1', '0', '0', '0', '1'], ['1', '0', '0', '0', '0', '1']]","[[2, 2], [4, 1], [4, 5]]","{'i': [3, 4, 4, 3, 5, 1, 2, 3, 2, 2, 2, 1, 4, 5, 5], 'j': [2, 0, 4, 5, 5, 2, 3, 4, 5, 1, 0, 1, 2, 1, 0], 't': [951.9000000953674, 2650.4000000953674, 3725, 4531.800000190735, 5363.60000038147, 6607.5, 8403.700000286102, 10290.60000038147, 11328.200000286102, 12748.900000095367, 13649.800000190735, 14610.60000038147, 15905, 16705.60000038147, 17478.700000286102], 'hit': ['1', '1', '0', '1', '1', '0', '1', '0', '0', '1', '0', '0', '0', '0', '1'], 'b': []}","[['unknown', 'unknown', 'unknown', 'unknown', 'unknown', 'unknown'], ['unknown', 'white', 'white', 'unknown', 'unknown', 'unknown'], ['white', 'black', 'black', 'black', 'unknown', 'white'], ['unknown', 'unknown', 'black', 'unknown', 'white', 'black'], ['black', 'black', 'white', 'unknown', 'white', 'black'], ['black', 'white', 'unknown', 'unknown', 'unknown', 'black']]",15,0,18,,8
,instructions,14,171743,0.0-4.0-4.0-1.3,6978f7723afd6296bd3c6be6,5f57be602095072bb238a7ab,6978fcbfcbc5e802a9122ff5,265,1,TRUE,1,TRUE,Player 265,54,asymmetric,"[{""""page_index"""":0,""""viewing_time"""":941.0999999046326}]",941.5,"","",,"","","","","",,,,,
,instructions,15,173235,0.0-4.0-5.0,6978f7723afd6296bd3c6be6,5f57be602095072bb238a7ab,6978fcbfcbc5e802a9122ff5,265,1,TRUE,1,TRUE,Player 265,54,asymmetric,"[{""""page_index"""":0,""""viewing_time"""":1490.6000003814697}]",1491.2000002861,"","",,"","","","","",,,,,
,instructions,16,186107,0.0-4.0-6.0-0.0,6978f7723afd6296bd3c6be6,5f57be602095072bb238a7ab,6978fcbfcbc5e802a9122ff5,265,1,TRUE,1,TRUE,Player 265,54,asymmetric,"[{""""page_index"""":0,""""viewing_time"""":2348.7999997138977},{""""page_index"""":1,""""viewing_time"""":6564.400000095367},{""""page_index"""":2,""""viewing_time"""":879.5},{""""page_index"""":3,""""viewing_time"""":3078.5999999046326}]",12871.6999998093,"","",,"","","","","",,,,,
,survey-multi-choice,17,189913,0.0-4.0-6.0-1.0,6978f7723afd6296bd3c6be6,5f57be602095072bb238a7ab,6978fcbfcbc5e802a9122ff5,265,1,TRUE,1,TRUE,Player 265,54,asymmetric,"",3804.5,"{""""Q0"""":""""... <b>repeat</b> my clicks from the first round, in the same order""""}",[0],1,multichoice_reconstruction,"","","","",,,,,
,instructions,18,191383,0.0-4.0-7.0,6978f7723afd6296bd3c6be6,5f57be602095072bb238a7ab,6978fcbfcbc5e802a9122ff5,265,1,TRUE,1,TRUE,Player 265,54,asymmetric,"[{""""page_index"""":0,""""viewing_time"""":1468.3000001907349}]",1468.80000019073,"","",,"","","","","",,,,,
,findSquares,19,201173,0.0-4.0-8.0,6978f7723afd6296bd3c6be6,5f57be602095072bb238a7ab,6978fcbfcbc5e802a9122ff5,265,1,TRUE,1,TRUE,Player 265,54,asymmetric,"",,"","",,memory,"[['0', '0', '0', '0', '0', '0'], ['1', '1', '0', '0', '1', '1'], ['0', '0', '0', '0', '0', '0'], ['1', '0', '0', '0', '0', '1'], ['1', '1', '0', '0', '1', '1'], ['0', '0', '0', '0', '0', '0']]","[[1, 1], [1, 5], [3, 5], [4, 0]]","{'i': [3, 1, 1, 2, 3, 4, 4, 4, 2, 1], 'j': [4, 4, 2, 1, 0, 1, 5, 4, 4, 0], 't': [1148.5, 1831.5, 2422.7000002861023, 2933.5, 3514.5, 4052.5, 5287.5, 5942.900000095367, 6913.200000286102, 7776], 'hit': ['0', '1', '0', '0', '1', '1', '1', '1', '0', '1'], 'b': []}","[['unknown', 'unknown', 'unknown', 'unknown', 'unknown', 'unknown'], ['black', 'black', 'white', 'unknown', 'black', 'black'], ['unknown', 'white', 'unknown', 'unknown', 'white', 'unknown'], ['black', 'unknown', 'unknown', 'unknown', 'white', 'black'], ['black', 'black', 'unknown', 'unknown', 'black', 'black'], ['unknown', 'unknown', 'unknown', 'unknown', 'unknown', 'unknown']]",10,0,22,,1
,survey-multi-choice,20,207704,0.0-4.0-9.0,6978f7723afd6296bd3c6be6,5f57be602095072bb238a7ab,6978fcbfcbc5e802a9122ff5,265,1,TRUE,1,TRUE,Player 265,54,asymmetric,"",6529.59999990463,"{""""Q0"""":""""... <b>the same number of</b> white cards""""}",[0],,estimate,"","","","",,,,,
,survey-text,21,209531,0.0-4.0-10.0,6978f7723afd6296bd3c6be6,5f57be602095072bb238a7ab,6978fcbfcbc5e802a9122ff5,265,1,TRUE,1,TRUE,Player 265,54,asymmetric,"",1820.09999990463,"{""""worker_comments"""":""""""""}","",,"","","","","",,,,,
,instructions,22,214703,0.0-4.0-11.0,6978f7723afd6296bd3c6be6,5f57be602095072bb238a7ab,6978fcbfcbc5e802a9122ff5,265,1,TRUE,1,TRUE,Player 265,54,asymmetric,"[{""""page_index"""":0,""""viewing_time"""":5171.300000190735}]",5171.7000002861,"","",,"","","","","",,,,,
1,fullscreen,0,2508,0.0-0.0,6978f7723afd6296bd3c6be6,5bf4afe0b8e9f800014c9c0b,6978fce90adcfcf0ac31c7a4,266,1,TRUE,1,TRUE,Player 266,58,asymmetric,"",,"","",,"","","","","",,,,,
,instructions,1,39936,0.0-1.0,6978f7723afd6296bd3c6be6,5bf4afe0b8e9f800014c9c0b,6978fce90adcfcf0ac31c7a4,266,1,TRUE,1,TRUE,Player 266,58,asymmetric,"[{""""page_index"""":0,""""viewing_time"""":10270.100000000093},{""""page_index"""":1,""""viewing_time"""":6607.299999999814},{""""page_index"""":2,""""viewing_time"""":9469.899999999907},{""""page_index"""":3,""""viewing_time"""":4871.600000000093},{""""page_index"""":4,""""viewing_time"""":6201.600000000093}]",37421.8999999999,"","",,"","","","","",,,,,
,survey-multi-choice,2,57411,0.0-2.0,6978f7723afd6296bd3c6be6,5bf4afe0b8e9f800014c9c0b,6978fce90adcfcf0ac31c7a4,266,1,TRUE,1,TRUE,Player 266,58,asymmetric,"",17469.2999999998,"{""""Q0"""":""""... find all black cards whilst revealing as <b>few white cards</b> as possible""""}",[0],1,multichoice_part1,"","","","",,,,,
,instructions,3,61005,0.0-4.0-0.0,6978f7723afd6296bd3c6be6,5bf4afe0b8e9f800014c9c0b,6978fce90adcfcf0ac31c7a4,266,1,TRUE,1,TRUE,Player 266,58,asymmetric,"[{""""page_index"""":0,""""viewing_time"""":3592.5}]",3593.39999999991,"","",,"","","","","",,,,,
,findSquares,4,71447,0.0-4.0-1.0,6978f7723afd6296bd3c6be6,5bf4afe0b8e9f800014c9c0b,6978fce90adcfcf0ac31c7a4,266,1,TRUE,1,TRUE,Player 266,58,asymmetric,"",,"","",,"","[['0', '0', '0', '0'], ['1', '1', '1', '1'], ['1', '1', '1', '1'], ['0', '0', '0', '0']]","[[2, 2]]","{'i': [2, 2, 1, 0, 1, 1, 1, 2], 'j': [1, 0, 0, 0, 1, 2, 3, 3], 't': [2872.2999999998137, 3655.5999999996275, 4306.199999999721, 5159.699999999721, 5878.699999999721, 6422.699999999721, 7572.5, 8414], 'hit': ['1', '1', '1', '0', '1', '1', '1', '1'], 'b': []}","[['white', 'unknown', 'unknown', 'unknown'], ['black', 'black', 'black', 'black'], ['black', 'black', 'black', 'black'], ['unknown', 'unknown', 'unknown', 'unknown']]",8,0,7,,
,instructions,5,74855,0.0-4.0-2.0,6978f7723afd6296bd3c6be6,5bf4afe0b8e9f800014c9c0b,6978fce90adcfcf0ac31c7a4,266,1,TRUE,1,TRUE,Player 266,58,asymmetric,"[{""""page_index"""":0,""""viewing_time"""":3407.7000000001863}]",3407.90000000037,"","",,"","","","","",,,,,
,instructions,6,93183,0.0-4.0-3.0,6978f7723afd6296bd3c6be6,5bf4afe0b8e9f800014c9c0b,6978fce90adcfcf0ac31c7a4,266,1,TRUE,1,TRUE,Player 266,58,asymmetric,"[{""""page_index"""":0,""""viewing_time"""":16535.399999999907},{""""page_index"""":1,""""viewing_time"""":1792.2999999998137}]",18328.1000000001,"","",,"","","","","",,,,,
,findSquares,7,120112,0.0-4.0-4.0-0.0,6978f7723afd6296bd3c6be6,5bf4afe0b8e9f800014c9c0b,6978fce90adcfcf0ac31c7a4,266,1,TRUE,1,TRUE,Player 266,58,asymmetric,"",,"","",,non-pretend,"[['0', '0', '0', '0', '0', '0'], ['1', '1', '0', '0', '1', '1'], ['0', '0', '0', '0', '0', '0'], ['1', '0', '0', '0', '0', '1'], ['1', '1', '0', '0', '1', '1'], ['0', '0', '0', '0', '0', '0']]","[[1, 1], [1, 5], [3, 5], [4, 0]]","{'i': [1, 1, 0, 2, 1, 0, 2, 4, 3, 4, 5, 4, 5, 3, 4, 1, 2, 2, 0, 0, 3], 'j': [4, 3, 4, 4, 0, 1, 1, 1, 4, 5, 5, 4, 1, 1, 2, 2, 0, 5, 5, 0, 0], 't': [1704.6999999997206, 2389.1999999997206, 3150, 3957.899999999907, 5686.199999999721, 6777.699999999721, 7481.699999999721, 8302.19999999972, 9130.599999999627, 9680.899999999907, 10280.099999999627, 10920.099999999627, 12966.099999999627, 13689.099999999627, 14872.899999999907, 16200.099999999627, 17746.399999999907, 22542.599999999627, 23215.599999999627, 24234, 24924.69999999972], 'hit': ['1', '0', '0', '0', '1', '0', '0', '1', '0', '1', '0', '1', '0', '0', '0', '0', '0', '0', '0', '0', '1'], 'b': []}","[['white', 'white', 'unknown', 'unknown', 'white', 'white'], ['black', 'black', 'white', 'white', 'black', 'black'], ['white', 'white', 'unknown', 'unknown', 'white', 'white'], ['black', 'white', 'unknown', 'unknown', 'white', 'black'], ['black', 'black', 'white', 'unknown', 'black', 'black'], ['unknown', 'white', 'unknown', 'unknown', 'unknown', 'white']]",21,0,11,,1
,instructions,8,122240,0.0-4.0-4.0-1.0,6978f7723afd6296bd3c6be6,5bf4afe0b8e9f800014c9c0b,6978fce90adcfcf0ac31c7a4,266,1,TRUE,1,TRUE,Player 266,58,asymmetric,"[{""""page_index"""":0,""""viewing_time"""":2126.399999999907}]",2126.79999999981,"","",,"","","","","",,,,,
,findSquares,9,145738,0.0-4.0-4.0-0.1,6978f7723afd6296bd3c6be6,5bf4afe0b8e9f800014c9c0b,6978fce90adcfcf0ac31c7a4,266,1,TRUE,1,TRUE,Player 266,58,asymmetric,"",,"","",,non-pretend,"[['0', '0', '0', '0', '0', '0'], ['0', '0', '1', '1', '0', '0'], ['0', '0', '1', '0', '0', '0'], ['0', '1', '0', '0', '1', '0'], ['0', '1', '0', '0', '1', '1'], ['0', '1', '0', '0', '1', '0']]","[[1, 2], [4, 4], [5, 1]]","{'i': [1, 2, 0, 1, 5, 4, 4, 3, 3, 4, 2, 0, 2, 4, 5, 3], 'j': [3, 3, 3, 4, 4, 1, 2, 1, 0, 0, 1, 2, 2, 5, 5, 4], 't': [1094, 1517, 2381.2000000001863, 3285.600000000093, 4204.299999999814, 5077.399999999907, 5988, 6765.399999999907, 8826.5, 9439, 10114.100000000093, 11101.100000000093, 11555.5, 14408.700000000186, 14916.100000000093, 21486.299999999814], 'hit': ['1', '0', '0', '0', '1', '1', '0', '1', '0', '0', '0', '0', '1', '1', '0', '1'], 'b': []}","[['unknown', 'unknown', 'white', 'white', 'unknown', 'unknown'], ['unknown', 'unknown', 'black', 'black', 'white', 'unknown'], ['unknown', 'white', 'black', 'white', 'unknown', 'unknown'], ['white', 'black', 'unknown', 'unknown', 'black', 'unknown'], ['white', 'black', 'white', 'unknown', 'black', 'black'], ['unknown', 'black', 'unknown', 'unknown', 'black', 'white']]",16,0,17,,9
,instructions,10,147441,0.0-4.0-4.0-1.1,6978f7723afd6296bd3c6be6,5bf4afe0b8e9f800014c9c0b,6978fce90adcfcf0ac31c7a4,266,1,TRUE,1,TRUE,Player 266,58,asymmetric,"[{""""page_index"""":0,""""viewing_time"""":1701.6000000000931}]",1702.20000000019,"","",,"","","","","",,,,,
,findSquares,11,166174,0.0-4.0-4.0-0.2,6978f7723afd6296bd3c6be6,5bf4afe0b8e9f800014c9c0b,6978fce90adcfcf0ac31c7a4,266,1,TRUE,1,TRUE,Player 266,58,asymmetric,"",,"","",,non-pretend,"[['0', '0', '0', '0', '0', '0'], ['0', '0', '0', '0', '0', '0'], ['0', '1', '1', '1', '0', '0'], ['0', '0', '1', '0', '0', '1'], ['1', '1', '0', '0', '0', '1'], ['1', '0', '0', '0', '0', '1']]","[[2, 2], [4, 1], [4, 5]]","{'i': [4, 1, 2, 2, 3, 1, 4, 3, 5, 2, 4, 3, 5, 5, 3, 3, 5, 3, 2], 'j': [2, 2, 3, 4, 3, 3, 4, 5, 5, 5, 0, 0, 0, 1, 1, 2, 4, 4, 1], 't': [1251.8999999999069, 1935.1000000000931, 2660.899999999907, 3478.2999999998137, 4044.899999999907, 4786, 5622, 6372.600000000093, 6918.100000000093, 7879, 9063.700000000186, 9961.799999999814, 10840.700000000186, 11676.5, 12365.399999999907, 13110.600000000093, 14676.399999999907, 15428.700000000186, 16715.700000000186], 'hit': ['0', '0', '1', '0', '0', '0', '0', '1', '1', '0', '1', '0', '1', '0', '0', '1', '0', '0', '1'], 'b': []}","[['unknown', 'unknown', 'unknown', 'unknown', 'unknown', 'unknown'], ['unknown', 'unknown', 'white', 'white', 'unknown', 'unknown'], ['unknown', 'black', 'black', 'black', 'white', 'white'], ['white', 'white', 'black', 'white', 'white', 'black'], ['black', 'black', 'white', 'unknown', 'white', 'black'], ['black', 'white', 'unknown', 'unknown', 'white', 'black']]",19,0,14,,8
,instructions,12,172368,0.0-4.0-4.0-1.2,6978f7723afd6296bd3c6be6,5bf4afe0b8e9f800014c9c0b,6978fce90adcfcf0ac31c7a4,266,1,TRUE,1,TRUE,Player 266,58,asymmetric,"[{""""page_index"""":0,""""viewing_time"""":6193.5}]",6193.89999999991,"","",,"","","","","",,,,,
,findSquares,13,186160,0.0-4.0-4.0-0.3,6978f7723afd6296bd3c6be6,5bf4afe0b8e9f800014c9c0b,6978fce90adcfcf0ac31c7a4,266,1,TRUE,1,TRUE,Player 266,58,asymmetric,"",,"","",,non-pretend,"[['1', '1', '1', '0', '0', '1'], ['0', '0', '0', '0', '0', '1'], ['0', '0', '0', '0', '0', '0'], ['0', '0', '0', '0', '1', '0'], ['1', '1', '0', '1', '1', '0'], ['0', '0', '0', '0', '0', '0']]","[[0, 1], [0, 5], [4, 0], [4, 4]]","{'i': [4, 1, 0, 4, 4, 4, 3, 3, 3, 5, 2, 1, 2, 1, 0, 0], 'j': [1, 1, 4, 5, 3, 2, 1, 3, 4, 4, 4, 5, 5, 4, 2, 0], 't': [1148.8000000002794, 1873.3999999999069, 2634.7000000001863, 3479.600000000093, 4188.800000000279, 4886.600000000093, 5844.899999999907, 6442.399999999907, 6790.600000000093, 7251.100000000093, 8110.5, 8717.200000000186, 9711.899999999907, 10231.100000000093, 11158, 11785.5], 'hit': ['1', '0', '0', '0', '1', '0', '0', '0', '1', '0', '0', '1', '0', '0', '1', '1'], 'b': []}","[['black', 'black', 'black', 'unknown', 'white', 'black'], ['unknown', 'white', 'unknown', 'unknown', 'white', 'black'], ['unknown', 'unknown', 'unknown', 'unknown', 'white', 'white'], ['unknown', 'white', 'unknown', 'white', 'black', 'unknown'], ['black', 'black', 'white', 'black', 'black', 'white'], ['unknown', 'unknown', 'unknown', 'unknown', 'white', 'unknown']]",16,0,16,,10
,instructions,14,188019,0.0-4.0-4.0-1.3,6978f7723afd6296bd3c6be6,5bf4afe0b8e9f800014c9c0b,6978fce90adcfcf0ac31c7a4,266,1,TRUE,1,TRUE,Player 266,58,asymmetric,"[{""""page_index"""":0,""""viewing_time"""":1857.2000000001863}]",1858,"","",,"","","","","",,,,,
,instructions,15,190610,0.0-4.0-5.0,6978f7723afd6296bd3c6be6,5bf4afe0b8e9f800014c9c0b,6978fce90adcfcf0ac31c7a4,266,1,TRUE,1,TRUE,Player 266,58,asymmetric,"[{""""page_index"""":0,""""viewing_time"""":2589.1999999997206}]",2589.59999999963,"","",,"","","","","",,,,,
,instructions,16,217580,0.0-4.0-6.0-0.0,6978f7723afd6296bd3c6be6,5bf4afe0b8e9f800014c9c0b,6978fce90adcfcf0ac31c7a4,266,1,TRUE,1,TRUE,Player 266,58,asymmetric,"[{""""page_index"""":0,""""viewing_time"""":3668.5},{""""page_index"""":1,""""viewing_time"""":10411.5},{""""page_index"""":2,""""viewing_time"""":1515.4000000003725},{""""page_index"""":3,""""viewing_time"""":11373.099999999627}]",26969.3000000003,"","",,"","","","","",,,,,
,survey-multi-choice,17,221136,0.0-4.0-6.0-1.0,6978f7723afd6296bd3c6be6,5bf4afe0b8e9f800014c9c0b,6978fce90adcfcf0ac31c7a4,266,1,TRUE,1,TRUE,Player 266,58,asymmetric,"",3551.20000000019,"{""""Q0"""":""""... <b>repeat</b> my clicks from the first round, in the same order""""}",[0],1,multichoice_reconstruction,"","","","",,,,,
,instructions,18,224738,0.0-4.0-7.0,6978f7723afd6296bd3c6be6,5bf4afe0b8e9f800014c9c0b,6978fce90adcfcf0ac31c7a4,266,1,TRUE,1,TRUE,Player 266,58,asymmetric,"[{""""page_index"""":0,""""viewing_time"""":3601.600000000093}]",3602,"","",,"","","","","",,,,,
,findSquares,19,249008,0.0-4.0-8.0,6978f7723afd6296bd3c6be6,5bf4afe0b8e9f800014c9c0b,6978fce90adcfcf0ac31c7a4,266,1,TRUE,1,TRUE,Player 266,58,asymmetric,"",,"","",,memory,"[['0', '0', '0', '0', '0', '0'], ['1', '1', '0', '0', '1', '1'], ['0', '0', '0', '0', '0', '0'], ['1', '0', '0', '0', '0', '1'], ['1', '1', '0', '0', '1', '1'], ['0', '0', '0', '0', '0', '0']]","[[1, 1], [1, 5], [3, 5], [4, 0]]","{'i': [4, 4, 3, 5, 2, 1, 1, 2, 2, 3, 4, 5, 4, 4, 0, 0, 1, 0, 1, 2, 0, 3], 'j': [1, 2, 1, 1, 1, 2, 4, 5, 4, 4, 5, 5, 4, 3, 4, 5, 3, 1, 0, 0, 0, 0], 't': [5665.800000000279, 6806.100000000093, 7633.5, 9219.899999999907, 9768.600000000093, 10307.200000000186, 11027.700000000186, 11709, 12370.899999999907, 12793.600000000093, 13436.80000000028, 14110, 14633.600000000093, 15535.399999999907, 16593.600000000093, 17073.80000000028, 17659.899999999907, 18754.600000000093, 19316.5, 20379.100000000093, 21339.30000000028, 22260.100000000093], 'hit': ['1', '0', '0', '0', '0', '0', '1', '0', '0', '0', '1', '0', '1', '0', '0', '0', '0', '0', '1', '0', '0', '1'], 'b': []}","[['white', 'white', 'unknown', 'unknown', 'white', 'white'], ['black', 'black', 'white', 'white', 'black', 'black'], ['white', 'white', 'unknown', 'unknown', 'white', 'white'], ['black', 'white', 'unknown', 'unknown', 'white', 'black'], ['black', 'black', 'white', 'white', 'black', 'black'], ['unknown', 'white', 'unknown', 'unknown', 'unknown', 'white']]",22,0,10,,1
,survey-multi-choice,20,262242,0.0-4.0-9.0,6978f7723afd6296bd3c6be6,5bf4afe0b8e9f800014c9c0b,6978fce90adcfcf0ac31c7a4,266,1,TRUE,1,TRUE,Player 266,58,asymmetric,"",13231.3999999999,"{""""Q0"""":""""... <b>more</b> white cards""""}",[0],,estimate,"","","","",,,,,
,survey-text,21,267481,0.0-4.0-10.0,6978f7723afd6296bd3c6be6,5bf4afe0b8e9f800014c9c0b,6978fce90adcfcf0ac31c7a4,266,1,TRUE,1,TRUE,Player 266,58,asymmetric,"",5226.30000000028,"{""""worker_comments"""":""""""""}","",,"","","","","",,,,,
,instructions,22,273471,0.0-4.0-11.0,6978f7723afd6296bd3c6be6,5bf4afe0b8e9f800014c9c0b,6978fce90adcfcf0ac31c7a4,266,1,TRUE,1,TRUE,Player 266,58,asymmetric,"[{""""page_index"""":0,""""viewing_time"""":5988.200000000186}]",5988.80000000028,"","",,"","","","","",,,,,
1,fullscreen,0,4260,0.0-0.0,6978f7723afd6296bd3c6be6,66e36f486ca7e6924fa02ff3,6978fd0842417b5dee48ce14,267,1,TRUE,2,TRUE,Player 267,21,asymmetric,"",,"","",,"","","","","",,,,,
,instructions,1,85710,0.0-1.0,6978f7723afd6296bd3c6be6,66e36f486ca7e6924fa02ff3,6978fd0842417b5dee48ce14,267,1,TRUE,2,TRUE,Player 267,21,asymmetric,"[{""""page_index"""":0,""""viewing_time"""":17927.099999999627},{""""page_index"""":1,""""viewing_time"""":15509.900000000373},{""""page_index"""":2,""""viewing_time"""":12824.200000000186},{""""page_index"""":3,""""viewing_time"""":27474.299999999814},{""""page_index"""":4,""""viewing_time"""":7710.200000000186}]",81446.2999999998,"","",,"","","","","",,,,,
,survey-multi-choice,2,121119,0.0-2.0,6978f7723afd6296bd3c6be6,66e36f486ca7e6924fa02ff3,6978fd0842417b5dee48ce14,267,1,TRUE,2,TRUE,Player 267,21,asymmetric,"",35407.1000000006,"{""""Q0"""":""""... <b>avoid</b> all the black cards""""}",[0],0,multichoice_part1,"","","","",,,,,
,instructions,3,127772,0.0-3.0-0.0,6978f7723afd6296bd3c6be6,66e36f486ca7e6924fa02ff3,6978fd0842417b5dee48ce14,267,1,TRUE,2,TRUE,Player 267,21,asymmetric,"[{""""page_index"""":0,""""viewing_time"""":6651.5999999996275}]",6651.90000000037,"","",,"","","","","",,,,,
,survey-multi-choice,4,135080,0.0-3.0-1.0,6978f7723afd6296bd3c6be6,66e36f486ca7e6924fa02ff3,6978fd0842417b5dee48ce14,267,1,TRUE,2,TRUE,Player 267,21,asymmetric,"",7306.20000000019,"{""""Q0"""":""""... find all black cards whilst revealing as <b>few white cards</b> as possible""""}",[0],1,multichoice_part1,"","","","",,,,,
,instructions,5,140436,0.0-4.0-0.0,6978f7723afd6296bd3c6be6,66e36f486ca7e6924fa02ff3,6978fd0842417b5dee48ce14,267,1,TRUE,2,TRUE,Player 267,21,asymmetric,"[{""""page_index"""":0,""""viewing_time"""":5353.299999999814}]",5353.59999999963,"","",,"","","","","",,,,,
,findSquares,6,159668,0.0-4.0-1.0,6978f7723afd6296bd3c6be6,66e36f486ca7e6924fa02ff3,6978fd0842417b5dee48ce14,267,1,TRUE,2,TRUE,Player 267,21,asymmetric,"",,"","",,"","[['0', '0', '0', '0'], ['1', '1', '1', '1'], ['1', '1', '1', '1'], ['0', '0', '0', '0']]","[[2, 2]]","{'i': [0, 3, 3, 0, 1, 2, 0, 0, 2, 1, 1, 3, 3, 1, 2], 'j': [0, 0, 3, 3, 1, 0, 1, 2, 3, 3, 0, 1, 2, 2, 1], 't': [1449.9000000003725, 2486, 3278.2000000001863, 3992.7000000001863, 5418.9000000003725, 6743.4000000003725, 7808.4000000003725, 8759.200000000186, 9753.200000000186, 10771.600000000559, 11745.200000000186, 12412.800000000745, 12957.700000000186, 16410.60000000056, 17211.5], 'hit': ['0', '0', '0', '0', '1', '1', '0', '0', '1', '1', '1', '0', '0', '1', '1'], 'b': []}","[['white', 'white', 'white', 'white'], ['black', 'black', 'black', 'black'], ['black', 'black', 'black', 'black'], ['white', 'white', 'white', 'white']]",15,0,0,,
,instructions,7,165212,0.0-4.0-2.0,6978f7723afd6296bd3c6be6,66e36f486ca7e6924fa02ff3,6978fd0842417b5dee48ce14,267,1,TRUE,2,TRUE,Player 267,21,asymmetric,"[{""""page_index"""":0,""""viewing_time"""":5542}]",5542.40000000037,"","",,"","","","","",,,,,
,instructions,8,184375,0.0-4.0-3.0,6978f7723afd6296bd3c6be6,66e36f486ca7e6924fa02ff3,6978fd0842417b5dee48ce14,267,1,TRUE,2,TRUE,Player 267,21,asymmetric,"[{""""page_index"""":0,""""viewing_time"""":15517},{""""page_index"""":1,""""viewing_time"""":3645.7000000001863}]",19163.1000000006,"","",,"","","","","",,,,,
,findSquares,9,213354,0.0-4.0-4.0-0.0,6978f7723afd6296bd3c6be6,66e36f486ca7e6924fa02ff3,6978fd0842417b5dee48ce14,267,1,TRUE,2,TRUE,Player 267,21,asymmetric,"",,"","",,non-pretend,"[['0', '0', '0', '0', '0', '0'], ['1', '1', '0', '0', '1', '1'], ['0', '0', '0', '0', '0', '0'], ['1', '0', '0', '0', '0', '1'], ['1', '1', '0', '0', '1', '1'], ['0', '0', '0', '0', '0', '0']]","[[1, 1], [1, 5], [3, 5], [4, 0]]","{'i': [0, 5, 5, 0, 3, 2, 2, 3, 5, 5, 0, 0, 0, 0, 5, 5, 3, 2, 2, 3, 4, 4, 1, 2, 2, 4, 4, 3, 1, 1], 'j': [0, 5, 0, 5, 3, 3, 2, 2, 3, 2, 2, 3, 1, 4, 4, 1, 1, 1, 4, 4, 4, 2, 3, 0, 5, 1, 5, 0, 0, 4], 't': [926.3000000007451, 1670.5, 3043.300000000745, 3786.800000000745, 4842.600000000559, 5444.5, 6130, 6676.200000000186, 8089.4000000003725, 8827.400000000373, 9516.5, 10081.100000000559, 11101.600000000559, 11760.300000000745, 12448.100000000559, 13183.900000000373, 14338.900000000373, 14939.600000000559, 15510.400000000373, 16029.400000000373, 16638.800000000745, 18154.900000000373, 20069.200000000186, 21281.400000000373, 22076.800000000745, 23062.200000000186, 24031.300000000745, 25050.300000000745, 26114.900000000373, 26964.700000000186], 'hit': ['0', '0', '0', '0', '0', '0', '0', '0', '0', '0', '0', '0', '0', '0', '0', '0', '0', '0', '0', '0', '1', '0', '0', '0', '0', '1', '1', '1', '1', '1'], 'b': []}","[['white', 'white', 'white', 'white', 'white', 'white'], ['black', 'black', 'unknown', 'white', 'black', 'black'], ['white', 'white', 'white', 'white', 'white', 'white'], ['black', 'white', 'white', 'white', 'white', 'black'], ['black', 'black', 'white', 'unknown', 'black', 'black'], ['white', 'white', 'white', 'white', 'white', 'white']]",30,0,2,,1
,instructions,10,217935,0.0-4.0-4.0-1.0,6978f7723afd6296bd3c6be6,66e36f486ca7e6924fa02ff3,6978fd0842417b5dee48ce14,267,1,TRUE,2,TRUE,Player 267,21,asymmetric,"[{""""page_index"""":0,""""viewing_time"""":4579.9000000003725}]",4580.59999999963,"","",,"","","","","",,,,,
,findSquares,11,243937,0.0-4.0-4.0-0.1,6978f7723afd6296bd3c6be6,66e36f486ca7e6924fa02ff3,6978fd0842417b5dee48ce14,267,1,TRUE,2,TRUE,Player 267,21,asymmetric,"",,"","",,non-pretend,"[['0', '0', '0', '0', '0', '0'], ['0', '0', '0', '0', '0', '0'], ['0', '1', '1', '1', '0', '0'], ['0', '0', '1', '0', '0', '1'], ['1', '1', '0', '0', '0', '1'], ['1', '0', '0', '0', '0', '1']]","[[2, 2], [4, 1], [4, 5]]","{'i': [0, 1, 2, 3, 4, 0, 1, 2, 3, 5, 5, 5, 0, 0, 0, 0, 5, 5, 5, 4, 3, 2, 1, 4, 2, 1, 1, 1, 4, 3, 3, 3, 2], 'j': [0, 0, 0, 0, 0, 5, 5, 5, 5, 4, 3, 2, 3, 2, 1, 4, 5, 0, 1, 2, 3, 4, 1, 4, 1, 2, 3, 4, 3, 4, 1, 2, 3], 't': [853.6000000005588, 1433.6000000005588, 1918.6000000005588, 2506.100000000559, 3017.600000000559, 4160.200000000186, 4636.700000000186, 5101.5, 5532, 7536.799999999814, 8070.200000000186, 8618.100000000559, 9300.600000000559, 9821.700000000186, 10379.200000000186, 11028.5, 11736, 12443.400000000373, 12954.100000000559, 13698.799999999814, 14453.700000000186, 15068.200000000186, 15842.400000000373, 16909.5, 17825.799999999814, 18687.200000000186, 19253.60000000056, 19926.10000000056, 20621.799999999814, 21852.60000000056, 22628.400000000373, 23243.400000000373, 23986.799999999814], 'hit': ['0', '0', '0', '0', '1', '0', '0', '0', '1', '0', '0', '0', '0', '0', '0', '0', '1', '1', '0', '0', '0', '0', '0', '0', '1', '0', '0', '0', '0', '0', '0', '1', '1'], 'b': []}","[['white', 'white', 'white', 'white', 'white', 'white'], ['white', 'white', 'white', 'white', 'white', 'white'], ['white', 'black', 'black', 'black', 'white', 'white'], ['white', 'white', 'black', 'white', 'white', 'black'], ['black', 'black', 'white', 'white', 'white', 'black'], ['black', 'white', 'white', 'white', 'white', 'black']]",33,0,0,,8
,instructions,12,248226,0.0-4.0-4.0-1.1,6978f7723afd6296bd3c6be6,66e36f486ca7e6924fa02ff3,6978fd0842417b5dee48ce14,267,1,TRUE,2,TRUE,Player 267,21,asymmetric,"[{""""page_index"""":0,""""viewing_time"""":4287.700000000186}]",4288.29999999981,"","",,"","","","","",,,,,
,findSquares,13,272671,0.0-4.0-4.0-0.2,6978f7723afd6296bd3c6be6,66e36f486ca7e6924fa02ff3,6978fd0842417b5dee48ce14,267,1,TRUE,2,TRUE,Player 267,21,asymmetric,"",,"","",,non-pretend,"[['0', '0', '0', '0', '0', '0'], ['0', '0', '1', '1', '0', '0'], ['0', '0', '1', '0', '0', '0'], ['0', '1', '0', '0', '1', '0'], ['0', '1', '0', '0', '1', '1'], ['0', '1', '0', '0', '1', '0']]","[[1, 2], [4, 4], [5, 1]]","{'i': [0, 0, 0, 0, 0, 0, 5, 4, 3, 2, 1, 1, 2, 3, 5, 5, 5, 1, 1, 1, 3, 4, 5, 2, 2, 4, 4, 2, 2, 3], 'j': [0, 1, 2, 3, 4, 5, 5, 5, 5, 5, 5, 0, 0, 0, 0, 3, 4, 4, 3, 1, 4, 0, 2, 1, 4, 1, 3, 3, 2, 1], 't': [1199.9000000003725, 1699.0999999996275, 2162.9000000003725, 2627.5, 3068, 3486.0999999996275, 4437.200000000186, 4715.4000000003725, 4982.200000000186, 5760.4000000003725, 6100.5, 6725.200000000186, 7187.4000000003725, 7686.200000000186, 8942.400000000373, 10427.700000000186, 11549.799999999814, 12456.700000000186, 12989, 13800.299999999814, 14902.700000000186, 15878.599999999627, 16886.700000000186, 18279.299999999814, 19080.5, 19860.700000000186, 20297.400000000373, 20762.299999999814, 21237.099999999627, 22431.799999999814], 'hit': ['0', '0', '0', '0', '0', '0', '0', '1', '0', '0', '0', '0', '0', '0', '0', '0', '1', '0', '1', '0', '1', '0', '0', '0', '0', '1', '0', '0', '1', '1'], 'b': []}","[['white', 'white', 'white', 'white', 'white', 'white'], ['white', 'white', 'black', 'black', 'white', 'white'], ['white', 'white', 'black', 'white', 'white', 'white'], ['white', 'black', 'unknown', 'unknown', 'black', 'white'], ['white', 'black', 'unknown', 'white', 'black', 'black'], ['white', 'black', 'white', 'white', 'black', 'white']]",30,0,3,,9
,instructions,14,274737,0.0-4.0-4.0-1.2,6978f7723afd6296bd3c6be6,66e36f486ca7e6924fa02ff3,6978fd0842417b5dee48ce14,267,1,TRUE,2,TRUE,Player 267,21,asymmetric,"[{""""page_index"""":0,""""viewing_time"""":2064.0999999996275}]",2064.89999999944,"","",,"","","","","",,,,,
,findSquares,15,286305,0.0-4.0-4.0-0.3,6978f7723afd6296bd3c6be6,66e36f486ca7e6924fa02ff3,6978fd0842417b5dee48ce14,267,1,TRUE,2,TRUE,Player 267,21,asymmetric,"",,"","",,non-pretend,"[['1', '1', '1', '0', '0', '1'], ['0', '0', '0', '0', '0', '1'], ['0', '0', '0', '0', '0', '0'], ['0', '0', '0', '0', '1', '0'], ['1', '1', '0', '1', '1', '0'], ['0', '0', '0', '0', '0', '0']]","[[0, 1], [0, 5], [4, 0], [4, 4]]","{'i': [0, 5, 5, 5, 5, 5, 5, 0, 4, 3, 2, 1, 4, 4, 4, 3], 'j': [0, 5, 4, 3, 2, 1, 0, 2, 5, 5, 5, 5, 1, 2, 3, 4], 't': [864, 1570.8999999994412, 2069.5999999996275, 2547.5999999996275, 3126.0999999996275, 3624.899999999441, 4034.899999999441, 4878.0999999996275, 5910.5999999996275, 6433.799999999814, 6804, 7059.699999999255, 8219.399999999441, 8556.099999999627, 8848.599999999627, 9554.099999999627], 'hit': ['1', '0', '0', '0', '0', '0', '0', '1', '0', '0', '0', '1', '1', '0', '1', '1'], 'b': []}","[['black', 'black', 'black', 'unknown', 'unknown', 'black'], ['unknown', 'unknown', 'unknown', 'unknown', 'unknown', 'black'], ['unknown', 'unknown', 'unknown', 'unknown', 'unknown', 'white'], ['unknown', 'unknown', 'unknown', 'unknown', 'black', 'white'], ['black', 'black', 'white', 'black', 'black', 'white'], ['white', 'white', 'white', 'white', 'white', 'white']]",16,0,16,,10
,instructions,16,289994,0.0-4.0-4.0-1.3,6978f7723afd6296bd3c6be6,66e36f486ca7e6924fa02ff3,6978fd0842417b5dee48ce14,267,1,TRUE,2,TRUE,Player 267,21,asymmetric,"[{""""page_index"""":0,""""viewing_time"""":3687.5}]",3687.79999999981,"","",,"","","","","",,,,,
,instructions,17,295251,0.0-4.0-5.0,6978f7723afd6296bd3c6be6,66e36f486ca7e6924fa02ff3,6978fd0842417b5dee48ce14,267,1,TRUE,2,TRUE,Player 267,21,asymmetric,"[{""""page_index"""":0,""""viewing_time"""":5256}]",5256.40000000037,"","",,"","","","","",,,,,
,instructions,18,328710,0.0-4.0-6.0-0.0,6978f7723afd6296bd3c6be6,66e36f486ca7e6924fa02ff3,6978fd0842417b5dee48ce14,267,1,TRUE,2,TRUE,Player 267,21,asymmetric,"[{""""page_index"""":0,""""viewing_time"""":6227.200000000186},{""""page_index"""":1,""""viewing_time"""":11856.099999999627},{""""page_index"""":2,""""viewing_time"""":6403.700000000186},{""""page_index"""":3,""""viewing_time"""":8970.5}]",33458.2000000002,"","",,"","","","","",,,,,
,survey-multi-choice,19,333778,0.0-4.0-6.0-1.0,6978f7723afd6296bd3c6be6,66e36f486ca7e6924fa02ff3,6978fd0842417b5dee48ce14,267,1,TRUE,2,TRUE,Player 267,21,asymmetric,"",5064.19999999926,"{""""Q0"""":""""... <b>repeat</b> my clicks from the first round, in the same order""""}",[0],1,multichoice_reconstruction,"","","","",,,,,
,instructions,20,341167,0.0-4.0-7.0,6978f7723afd6296bd3c6be6,66e36f486ca7e6924fa02ff3,6978fd0842417b5dee48ce14,267,1,TRUE,2,TRUE,Player 267,21,asymmetric,"[{""""page_index"""":0,""""viewing_time"""":7387.299999999814}]",7387.69999999926,"","",,"","","","","",,,,,
,findSquares,21,366908,0.0-4.0-8.0,6978f7723afd6296bd3c6be6,66e36f486ca7e6924fa02ff3,6978fd0842417b5dee48ce14,267,1,TRUE,2,TRUE,Player 267,21,asymmetric,"",,"","",,memory,"[['0', '0', '0', '0', '0', '0'], ['1', '1', '0', '0', '1', '1'], ['0', '0', '0', '0', '0', '0'], ['1', '0', '0', '0', '0', '1'], ['1', '1', '0', '0', '1', '1'], ['0', '0', '0', '0', '0', '0']]","[[1, 1], [1, 5], [3, 5], [4, 0]]","{'i': [0, 0, 5, 5, 5, 5, 5, 5, 0, 0, 0, 0, 1, 1, 1, 2, 2, 3, 3, 4, 4, 4, 4, 2, 2, 3, 3, 1, 3, 4], 'j': [0, 5, 5, 0, 1, 2, 3, 4, 4, 3, 2, 1, 0, 3, 2, 3, 2, 3, 2, 2, 3, 4, 1, 4, 1, 1, 4, 4, 0, 5], 't': [959.0999999996275, 1666.7000000001863, 2410.5, 3108.0999999996275, 3627.7999999998137, 4184.799999999814, 4557.700000000186, 4870.0999999996275, 5427.700000000186, 5867.799999999814, 6357.700000000186, 6795.799999999814, 9046.399999999441, 11575.899999999441, 12017.099999999627, 12597, 13144.200000000186, 13727, 14061.099999999627, 14493.899999999441, 14837.099999999627, 15257.399999999441, 16379.700000000186, 19466.39999999944, 20081.799999999814, 20696.099999999627, 21278.5, 22054.299999999814, 23030.89999999944, 23736], 'hit': ['0', '0', '0', '0', '0', '0', '0', '0', '0', '0', '0', '0', '1', '0', '0', '0', '0', '0', '0', '0', '0', '1', '1', '0', '0', '0', '0', '1', '1', '1'], 'b': []}","[['white', 'white', 'white', 'white', 'white', 'white'], ['black', 'black', 'white', 'white', 'black', 'black'], ['unknown', 'white', 'white', 'white', 'white', 'unknown'], ['black', 'white', 'white', 'white', 'white', 'black'], ['black', 'black', 'white', 'white', 'black', 'black'], ['white', 'white', 'white', 'white', 'white', 'white']]",30,0,2,,1
,survey-multi-choice,22,380478,0.0-4.0-9.0,6978f7723afd6296bd3c6be6,66e36f486ca7e6924fa02ff3,6978fd0842417b5dee48ce14,267,1,TRUE,2,TRUE,Player 267,21,asymmetric,"",13567.6000000006,"{""""Q0"""":""""... <b>fewer</b> white cards""""}",[0],,estimate,"","","","",,,,,
,survey-text,23,383208,0.0-4.0-10.0,6978f7723afd6296bd3c6be6,66e36f486ca7e6924fa02ff3,6978fd0842417b5dee48ce14,267,1,TRUE,2,TRUE,Player 267,21,asymmetric,"",2724.40000000037,"{""""worker_comments"""":""""""""}","",,"","","","","",,,,,
,instructions,24,391139,0.0-4.0-11.0,6978f7723afd6296bd3c6be6,66e36f486ca7e6924fa02ff3,6978fd0842417b5dee48ce14,267,1,TRUE,2,TRUE,Player 267,21,asymmetric,"[{""""page_index"""":0,""""viewing_time"""":7927.300000000745}]",7927.80000000075,"","",,"","","","","",,,,,
1,fullscreen,0,5111,0.0-0.0,6978f7723afd6296bd3c6be6,66597efb84cb793eeaa06ef8,6978fbec864f0778ab404590,268,1,TRUE,1,TRUE,Player 268,56,symmetric,"",,"","",,"","","","","",,,,,
,instructions,1,50820,0.0-1.0,6978f7723afd6296bd3c6be6,66597efb84cb793eeaa06ef8,6978fbec864f0778ab404590,268,1,TRUE,1,TRUE,Player 268,56,symmetric,"[{""""page_index"""":0,""""viewing_time"""":10933},{""""page_index"""":1,""""viewing_time"""":12751.799999999814},{""""page_index"""":2,""""viewing_time"""":10903.800000000745},{""""page_index"""":3,""""viewing_time"""":5008},{""""page_index"""":4,""""viewing_time"""":6112.0999999996275}]",45709,"","",,"","","","","",,,,,
,survey-multi-choice,2,60504,0.0-2.0,6978f7723afd6296bd3c6be6,66597efb84cb793eeaa06ef8,6978fbec864f0778ab404590,268,1,TRUE,1,TRUE,Player 268,56,symmetric,"",9683.09999999963,"{""""Q0"""":""""... find all black cards whilst revealing as <b>few white cards</b> as possible""""}",[0],1,multichoice_part1,"","","","",,,,,
,instructions,3,66304,0.0-4.0-0.0,6978f7723afd6296bd3c6be6,66597efb84cb793eeaa06ef8,6978fbec864f0778ab404590,268,1,TRUE,1,TRUE,Player 268,56,symmetric,"[{""""page_index"""":0,""""viewing_time"""":5799.299999999814}]",5799.5,"","",,"","","","","",,,,,
,findSquares,4,83938,0.0-4.0-1.0,6978f7723afd6296bd3c6be6,66597efb84cb793eeaa06ef8,6978fbec864f0778ab404590,268,1,TRUE,1,TRUE,Player 268,56,symmetric,"",,"","",,"","[['0', '0', '0', '0'], ['1', '1', '1', '1'], ['1', '1', '1', '1'], ['0', '0', '0', '0']]","[[2, 2]]","{'i': [0, 1, 2, 1, 3, 0, 1, 2, 1, 2], 'j': [1, 2, 3, 3, 2, 3, 1, 1, 0, 0], 't': [2433.0999999996275, 4940.399999999441, 6148.399999999441, 7037, 9372.5, 11140.399999999441, 12524.299999999814, 13300.5, 14996.699999999255, 15628.5], 'hit': ['0', '1', '1', '1', '0', '0', '1', '1', '1', '1'], 'b': []}","[['unknown', 'white', 'unknown', 'white'], ['black', 'black', 'black', 'black'], ['black', 'black', 'black', 'black'], ['unknown', 'unknown', 'white', 'unknown']]",10,0,5,,
,instructions,5,88184,0.0-4.0-2.0,6978f7723afd6296bd3c6be6,66597efb84cb793eeaa06ef8,6978fbec864f0778ab404590,268,1,TRUE,1,TRUE,Player 268,56,symmetric,"[{""""page_index"""":0,""""viewing_time"""":4245.799999999814}]",4245.89999999944,"","",,"","","","","",,,,,
,instructions,6,137160,0.0-4.0-3.0,6978f7723afd6296bd3c6be6,66597efb84cb793eeaa06ef8,6978fbec864f0778ab404590,268,1,TRUE,1,TRUE,Player 268,56,symmetric,"[{""""page_index"""":0,""""viewing_time"""":45151.40000000037},{""""page_index"""":1,""""viewing_time"""":3823.7999999998137}]",48975.2000000002,"","",,"","","","","",,,,,
,findSquares,7,179187,0.0-4.0-4.0-0.0,6978f7723afd6296bd3c6be6,66597efb84cb793eeaa06ef8,6978fbec864f0778ab404590,268,1,TRUE,1,TRUE,Player 268,56,symmetric,"",,"","",,non-pretend,"[['0', '0', '0', '0', '0', '0'], ['1', '1', '0', '0', '1', '1'], ['0', '0', '0', '0', '0', '0'], ['1', '0', '0', '0', '0', '1'], ['1', '1', '0', '0', '1', '1'], ['0', '0', '0', '0', '0', '0']]","[[1, 1], [1, 5], [3, 5], [4, 0]]","{'i': [1, 2, 4, 5, 5, 2, 1, 3, 0, 4, 1, 4, 5, 3, 2, 2, 0, 0, 0, 3, 4], 'j': [2, 1, 1, 0, 1, 5, 4, 4, 5, 2, 0, 5, 5, 1, 0, 4, 4, 1, 0, 0, 4], 't': [2798.899999999441, 4110.799999999814, 5191.0999999996275, 6454.700000000186, 9438.799999999814, 11575.099999999627, 12550.799999999814, 13495, 14942.700000000186, 17542.799999999814, 19054.5, 25038.799999999814, 25815.39999999944, 27734.599999999627, 29310.5, 31094.39999999944, 32702.799999999814, 33731.299999999814, 34670.89999999944, 36155, 40015.09999999963], 'hit': ['0', '0', '1', '0', '0', '0', '1', '0', '0', '0', '1', '1', '0', '0', '0', '0', '0', '0', '0', '1', '1'], 'b': []}","[['white', 'white', 'unknown', 'unknown', 'white', 'white'], ['black', 'black', 'white', 'unknown', 'black', 'black'], ['white', 'white', 'unknown', 'unknown', 'white', 'white'], ['black', 'white', 'unknown', 'unknown', 'white', 'black'], ['black', 'black', 'white', 'unknown', 'black', 'black'], ['white', 'white', 'unknown', 'unknown', 'unknown', 'white']]",21,0,11,,1
,instructions,8,183428,0.0-4.0-4.0-1.0,6978f7723afd6296bd3c6be6,66597efb84cb793eeaa06ef8,6978fbec864f0778ab404590,268,1,TRUE,1,TRUE,Player 268,56,symmetric,"[{""""page_index"""":0,""""viewing_time"""":4239.700000000186}]",4240,"","",,"","","","","",,,,,
,findSquares,9,225938,0.0-4.0-4.0-0.1,6978f7723afd6296bd3c6be6,66597efb84cb793eeaa06ef8,6978fbec864f0778ab404590,268,1,TRUE,1,TRUE,Player 268,56,symmetric,"",,"","",,non-pretend,"[['0', '0', '0', '0', '0', '0'], ['0', '0', '0', '0', '0', '0'], ['0', '0', '1', '1', '0', '0'], ['0', '0', '1', '1', '0', '0'], ['1', '1', '0', '0', '1', '1'], ['1', '0', '0', '0', '0', '1']]","[[2, 2], [4, 1], [4, 5]]","{'i': [3, 4, 3, 4, 3, 5, 5, 3, 3, 4, 3, 2, 2, 4, 2, 1, 1, 5, 5], 'j': [2, 2, 1, 4, 4, 4, 5, 3, 5, 0, 0, 1, 3, 3, 4, 2, 3, 1, 0], 't': [4389.899999999441, 6285.899999999441, 7669.899999999441, 9326.599999999627, 10302, 11686, 13133.799999999814, 16317.700000000186, 17974.299999999814, 23606.299999999814, 25358.299999999814, 26549.89999999944, 27573.799999999814, 29326.099999999627, 35342, 37510.200000000186, 38502.09999999963, 39701.89999999944, 40501.89999999944], 'hit': ['1', '0', '0', '1', '0', '0', '1', '1', '0', '1', '0', '0', '1', '0', '0', '0', '0', '0', '1'], 'b': []}","[['unknown', 'unknown', 'unknown', 'unknown', 'unknown', 'unknown'], ['unknown', 'unknown', 'white', 'white', 'unknown', 'unknown'], ['unknown', 'white', 'black', 'black', 'white', 'unknown'], ['white', 'white', 'black', 'black', 'white', 'white'], ['black', 'black', 'white', 'white', 'black', 'black'], ['black', 'white', 'unknown', 'unknown', 'white', 'black']]",19,0,14,,2
,instructions,10,235475,0.0-4.0-4.0-1.1,6978f7723afd6296bd3c6be6,66597efb84cb793eeaa06ef8,6978fbec864f0778ab404590,268,1,TRUE,1,TRUE,Player 268,56,symmetric,"[{""""page_index"""":0,""""viewing_time"""":9536.900000000373}]",9537.20000000019,"","",,"","","","","",,,,,
,findSquares,11,266470,0.0-4.0-4.0-0.2,6978f7723afd6296bd3c6be6,66597efb84cb793eeaa06ef8,6978fbec864f0778ab404590,268,1,TRUE,1,TRUE,Player 268,56,symmetric,"",,"","",,non-pretend,"[['0', '0', '0', '0', '0', '0'], ['0', '0', '1', '1', '0', '0'], ['0', '0', '1', '1', '0', '0'], ['0', '1', '0', '0', '1', '0'], ['0', '1', '0', '0', '1', '0'], ['0', '1', '0', '0', '1', '0']]","[[1, 2], [4, 4], [5, 1]]","{'i': [5, 4, 3, 3, 2, 1, 2, 3, 5, 5, 4, 4, 4, 3, 2, 3, 2], 'j': [2, 1, 1, 2, 1, 3, 3, 4, 5, 4, 2, 3, 5, 5, 4, 3, 2], 't': [2221.7999999998137, 3469.9000000003725, 5414.4000000003725, 7741.799999999814, 8549.799999999814, 10862.200000000186, 13006, 16726.099999999627, 19710.299999999814, 20358.400000000373, 22566.5, 23614.400000000373, 25230.400000000373, 25869.900000000373, 26925.900000000373, 27822, 28981.799999999814], 'hit': ['0', '1', '1', '0', '0', '1', '1', '1', '0', '1', '0', '0', '0', '0', '0', '0', '1'], 'b': []}","[['unknown', 'unknown', 'unknown', 'unknown', 'unknown', 'unknown'], ['unknown', 'unknown', 'black', 'black', 'unknown', 'unknown'], ['unknown', 'white', 'black', 'black', 'white', 'unknown'], ['unknown', 'black', 'white', 'white', 'black', 'white'], ['unknown', 'black', 'white', 'white', 'black', 'white'], ['unknown', 'black', 'white', 'unknown', 'black', 'white']]",17,0,16,,3
,instructions,12,270307,0.0-4.0-4.0-1.2,6978f7723afd6296bd3c6be6,66597efb84cb793eeaa06ef8,6978fbec864f0778ab404590,268,1,TRUE,1,TRUE,Player 268,56,symmetric,"[{""""page_index"""":0,""""viewing_time"""":3836.7000000001863}]",3837,"","",,"","","","","",,,,,
,findSquares,13,296753,0.0-4.0-4.0-0.3,6978f7723afd6296bd3c6be6,66597efb84cb793eeaa06ef8,6978fbec864f0778ab404590,268,1,TRUE,1,TRUE,Player 268,56,symmetric,"",,"","",,non-pretend,"[['1', '1', '0', '0', '1', '1'], ['0', '0', '0', '0', '0', '0'], ['0', '0', '0', '0', '0', '0'], ['1', '0', '0', '0', '0', '1'], ['1', '1', '0', '0', '1', '1'], ['0', '0', '0', '0', '0', '0']]","[[0, 1], [0, 5], [4, 0], [4, 4]]","{'i': [4, 4, 4, 1, 0, 0, 0, 5, 5, 5, 5, 3, 3, 2, 3, 3, 0], 'j': [1, 2, 5, 5, 4, 2, 3, 1, 0, 4, 5, 4, 5, 5, 0, 1, 0], 't': [3127.2000000001863, 4159.200000000186, 6519.200000000186, 8143.300000000745, 9639.100000000559, 11011.300000000745, 11855.100000000559, 13775.200000000186, 14375.300000000745, 15323.400000000373, 15779.400000000373, 17283.60000000056, 17767.300000000745, 20263.400000000373, 21559.400000000373, 22683.200000000186, 24439.200000000186], 'hit': ['1', '0', '1', '0', '1', '0', '0', '0', '0', '0', '0', '0', '1', '0', '1', '0', '1'], 'b': []}","[['black', 'black', 'white', 'white', 'black', 'black'], ['unknown', 'unknown', 'unknown', 'unknown', 'unknown', 'white'], ['unknown', 'unknown', 'unknown', 'unknown', 'unknown', 'white'], ['black', 'white', 'unknown', 'unknown', 'white', 'black'], ['black', 'black', 'white', 'unknown', 'black', 'black'], ['white', 'white', 'unknown', 'unknown', 'white', 'white']]",17,0,15,,4
