success,trial_type,trial_index,time_elapsed,internal_node_id,STUDY_ID,PROLIFIC_PID,SESSION_ID,participant_number,reconstruction_instructions,comprehend_reconstruction,nonpretend_instructions,comprehend_np,nickname,bonus,condition,view_history,rt,responses,question_order,correct,test_part,grid,already_clicked,click_log,final_grid_state,num_clicks,cheat,round_points,misses,grid_number
1,fullscreen,0,2712,0.0-0.0,6978a4c5f1475ddbda96cde5,601623c50446147b23a5bdff,6978ad4b63e6c52637ea0cde,16,1,TRUE,1,TRUE,Player 16,63,symmetric,"",,"","",,"","","","","",,,,,
,instructions,1,32460,0.0-1.0,6978a4c5f1475ddbda96cde5,601623c50446147b23a5bdff,6978ad4b63e6c52637ea0cde,16,1,TRUE,1,TRUE,Player 16,63,symmetric,"[{""""page_index"""":0,""""viewing_time"""":11490},{""""page_index"""":1,""""viewing_time"""":4275},{""""page_index"""":2,""""viewing_time"""":5978},{""""page_index"""":3,""""viewing_time"""":2634},{""""page_index"""":4,""""viewing_time"""":5368}]",29746,"","",,"","","","","",,,,,
,survey-multi-choice,2,38294,0.0-2.0,6978a4c5f1475ddbda96cde5,601623c50446147b23a5bdff,6978ad4b63e6c52637ea0cde,16,1,TRUE,1,TRUE,Player 16,63,symmetric,"",5832,"{""""Q0"""":""""... find all black cards whilst revealing as <b>few white cards</b> as possible""""}",[0],1,multichoice_part1,"","","","",,,,,
,instructions,3,41795,0.0-4.0-0.0,6978a4c5f1475ddbda96cde5,601623c50446147b23a5bdff,6978ad4b63e6c52637ea0cde,16,1,TRUE,1,TRUE,Player 16,63,symmetric,"[{""""page_index"""":0,""""viewing_time"""":3501}]",3501,"","",,"","","","","",,,,,
,findSquares,4,55371,0.0-4.0-1.0,6978a4c5f1475ddbda96cde5,601623c50446147b23a5bdff,6978ad4b63e6c52637ea0cde,16,1,TRUE,1,TRUE,Player 16,63,symmetric,"",,"","",,"","[['0', '0', '0', '0'], ['1', '1', '1', '1'], ['1', '1', '1', '1'], ['0', '0', '0', '0']]","[[2, 2]]","{'i': [2, 0, 1, 3, 2, 1, 1, 0, 3, 2, 1], 'j': [1, 2, 2, 2, 0, 1, 0, 0, 0, 3, 3], 't': [1214, 2301, 3246, 4422, 5741, 6564, 7527, 8604, 9662, 10835, 11566], 'hit': ['1', '0', '1', '0', '1', '1', '1', '0', '0', '1', '1'], 'b': []}","[['white', 'unknown', 'white', 'unknown'], ['black', 'black', 'black', 'black'], ['black', 'black', 'black', 'black'], ['white', 'unknown', 'white', 'unknown']]",11,0,4,,
,instructions,5,59177,0.0-4.0-2.0,6978a4c5f1475ddbda96cde5,601623c50446147b23a5bdff,6978ad4b63e6c52637ea0cde,16,1,TRUE,1,TRUE,Player 16,63,symmetric,"[{""""page_index"""":0,""""viewing_time"""":3804}]",3804,"","",,"","","","","",,,,,
,instructions,6,77811,0.0-4.0-3.0,6978a4c5f1475ddbda96cde5,601623c50446147b23a5bdff,6978ad4b63e6c52637ea0cde,16,1,TRUE,1,TRUE,Player 16,63,symmetric,"[{""""page_index"""":0,""""viewing_time"""":16494},{""""page_index"""":1,""""viewing_time"""":2139}]",18633,"","",,"","","","","",,,,,
,findSquares,7,103384,0.0-4.0-4.0-0.0,6978a4c5f1475ddbda96cde5,601623c50446147b23a5bdff,6978ad4b63e6c52637ea0cde,16,1,TRUE,1,TRUE,Player 16,63,symmetric,"",,"","",,non-pretend,"[['0', '0', '0', '0', '0', '0'], ['1', '1', '0', '0', '1', '1'], ['0', '0', '0', '0', '0', '0'], ['1', '0', '0', '0', '0', '1'], ['1', '1', '0', '0', '1', '1'], ['0', '0', '0', '0', '0', '0']]","[[1, 1], [1, 5], [3, 5], [4, 0]]","{'i': [4, 3, 1, 2, 0, 0, 1, 2, 1, 2, 2, 3, 4, 5, 5, 3, 4], 'j': [1, 1, 2, 0, 1, 0, 0, 1, 4, 5, 4, 4, 5, 1, 0, 0, 4], 't': [1783, 2599, 3994, 6936, 8474, 9408, 10866, 11625, 12959, 13844, 14735, 15666, 16743, 19658, 20570, 21566, 23563], 'hit': ['1', '0', '0', '0', '0', '0', '1', '0', '1', '0', '0', '0', '1', '0', '0', '1', '1'], 'b': []}","[['white', 'white', 'unknown', 'unknown', 'unknown', 'unknown'], ['black', 'black', 'white', 'unknown', 'black', 'black'], ['white', 'white', 'unknown', 'unknown', 'white', 'white'], ['black', 'white', 'unknown', 'unknown', 'white', 'black'], ['black', 'black', 'unknown', 'unknown', 'black', 'black'], ['white', 'white', 'unknown', 'unknown', 'unknown', 'unknown']]",17,0,15,,1
,instructions,8,105268,0.0-4.0-4.0-1.0,6978a4c5f1475ddbda96cde5,601623c50446147b23a5bdff,6978ad4b63e6c52637ea0cde,16,1,TRUE,1,TRUE,Player 16,63,symmetric,"[{""""page_index"""":0,""""viewing_time"""":1883}]",1884,"","",,"","","","","",,,,,
,findSquares,9,134813,0.0-4.0-4.0-0.1,6978a4c5f1475ddbda96cde5,601623c50446147b23a5bdff,6978ad4b63e6c52637ea0cde,16,1,TRUE,1,TRUE,Player 16,63,symmetric,"",,"","",,non-pretend,"[['0', '0', '0', '0', '0', '0'], ['0', '0', '0', '0', '0', '0'], ['0', '0', '1', '1', '0', '0'], ['0', '0', '1', '1', '0', '0'], ['1', '1', '0', '0', '1', '1'], ['1', '0', '0', '0', '0', '1']]","[[2, 2], [4, 1], [4, 5]]","{'i': [3, 4, 5, 3, 3, 5, 4, 4, 1, 2, 3, 3, 2, 1, 5, 4], 'j': [1, 2, 0, 2, 4, 5, 3, 4, 3, 3, 3, 5, 4, 4, 1, 0], 't': [1647, 3661, 5419, 6599, 8819, 9879, 13929, 15931, 17421, 18258, 20105, 22214, 23822, 24632, 26636, 27542], 'hit': ['0', '0', '1', '1', '0', '1', '0', '1', '0', '1', '1', '0', '0', '0', '0', '1'], 'b': []}","[['unknown', 'unknown', 'unknown', 'unknown', 'unknown', 'unknown'], ['unknown', 'unknown', 'unknown', 'white', 'white', 'unknown'], ['unknown', 'unknown', 'black', 'black', 'white', 'unknown'], ['unknown', 'white', 'black', 'black', 'white', 'white'], ['black', 'black', 'white', 'white', 'black', 'black'], ['black', 'white', 'unknown', 'unknown', 'unknown', 'black']]",16,0,17,,2
,instructions,10,136828,0.0-4.0-4.0-1.1,6978a4c5f1475ddbda96cde5,601623c50446147b23a5bdff,6978ad4b63e6c52637ea0cde,16,1,TRUE,1,TRUE,Player 16,63,symmetric,"[{""""page_index"""":0,""""viewing_time"""":2015}]",2015,"","",,"","","","","",,,,,
,findSquares,11,171504,0.0-4.0-4.0-0.2,6978a4c5f1475ddbda96cde5,601623c50446147b23a5bdff,6978ad4b63e6c52637ea0cde,16,1,TRUE,1,TRUE,Player 16,63,symmetric,"",,"","",,non-pretend,"[['1', '1', '0', '0', '1', '1'], ['0', '0', '0', '0', '0', '0'], ['0', '0', '0', '0', '0', '0'], ['1', '0', '0', '0', '0', '1'], ['1', '1', '0', '0', '1', '1'], ['0', '0', '0', '0', '0', '0']]","[[0, 1], [0, 5], [4, 0], [4, 4]]","{'i': [5, 0, 1, 0, 0, 1, 2, 1, 4, 4, 0, 4, 5, 3, 3, 1, 1, 5, 3], 'j': [5, 4, 5, 2, 3, 3, 4, 4, 5, 1, 0, 3, 4, 4, 5, 0, 1, 0, 0], 't': [2061, 3992, 5436, 6667, 7510, 8438, 9779, 10714, 12797, 13866, 14771, 21329, 22372, 23812, 25878, 28714, 30185, 31893, 32669], 'hit': ['0', '1', '0', '0', '0', '0', '0', '0', '1', '1', '1', '0', '0', '0', '1', '0', '0', '0', '1'], 'b': []}","[['black', 'black', 'white', 'white', 'black', 'black'], ['white', 'white', 'unknown', 'white', 'white', 'white'], ['unknown', 'unknown', 'unknown', 'unknown', 'white', 'unknown'], ['black', 'unknown', 'unknown', 'unknown', 'white', 'black'], ['black', 'black', 'unknown', 'white', 'black', 'black'], ['white', 'unknown', 'unknown', 'unknown', 'white', 'white']]",19,0,13,,4
,instructions,12,174312,0.0-4.0-4.0-1.2,6978a4c5f1475ddbda96cde5,601623c50446147b23a5bdff,6978ad4b63e6c52637ea0cde,16,1,TRUE,1,TRUE,Player 16,63,symmetric,"[{""""page_index"""":0,""""viewing_time"""":2807}]",2808,"","",,"","","","","",,,,,
,findSquares,13,197545,0.0-4.0-4.0-0.3,6978a4c5f1475ddbda96cde5,601623c50446147b23a5bdff,6978ad4b63e6c52637ea0cde,16,1,TRUE,1,TRUE,Player 16,63,symmetric,"",,"","",,non-pretend,"[['0', '0', '0', '0', '0', '0'], ['0', '0', '1', '1', '0', '0'], ['0', '0', '1', '1', '0', '0'], ['0', '1', '0', '0', '1', '0'], ['0', '1', '0', '0', '1', '0'], ['0', '1', '0', '0', '1', '0']]","[[1, 2], [4, 4], [5, 1]]","{'i': [1, 1, 4, 4, 3, 4, 4, 5, 3, 2, 1, 2, 2, 2, 5], 'j': [1, 3, 3, 5, 4, 1, 2, 2, 1, 4, 4, 1, 2, 3, 4], 't': [1499, 3256, 5382, 6280, 7384, 9250, 10651, 11493, 12923, 14985, 16121, 17871, 18726, 19551, 21225], 'hit': ['0', '1', '0', '0', '1', '1', '0', '0', '1', '0', '0', '0', '1', '1', '1'], 'b': []}","[['unknown', 'unknown', 'unknown', 'unknown', 'unknown', 'unknown'], ['unknown', 'white', 'black', 'black', 'white', 'unknown'], ['unknown', 'white', 'black', 'black', 'white', 'unknown'], ['unknown', 'black', 'unknown', 'unknown', 'black', 'unknown'], ['unknown', 'black', 'white', 'white', 'black', 'white'], ['unknown', 'black', 'white', 'unknown', 'black', 'unknown']]",15,0,18,,3
,instructions,14,199146,0.0-4.0-4.0-1.3,6978a4c5f1475ddbda96cde5,601623c50446147b23a5bdff,6978ad4b63e6c52637ea0cde,16,1,TRUE,1,TRUE,Player 16,63,symmetric,"[{""""page_index"""":0,""""viewing_time"""":1601}]",1601,"","",,"","","","","",,,,,
,instructions,15,200961,0.0-4.0-5.0,6978a4c5f1475ddbda96cde5,601623c50446147b23a5bdff,6978ad4b63e6c52637ea0cde,16,1,TRUE,1,TRUE,Player 16,63,symmetric,"[{""""page_index"""":0,""""viewing_time"""":1813}]",1813,"","",,"","","","","",,,,,
,instructions,16,214705,0.0-4.0-6.0-0.0,6978a4c5f1475ddbda96cde5,601623c50446147b23a5bdff,6978ad4b63e6c52637ea0cde,16,1,TRUE,1,TRUE,Player 16,63,symmetric,"[{""""page_index"""":0,""""viewing_time"""":2707},{""""page_index"""":1,""""viewing_time"""":4227},{""""page_index"""":2,""""viewing_time"""":1349},{""""page_index"""":3,""""viewing_time"""":5461}]",13744,"","",,"","","","","",,,,,
,survey-multi-choice,17,218300,0.0-4.0-6.0-1.0,6978a4c5f1475ddbda96cde5,601623c50446147b23a5bdff,6978ad4b63e6c52637ea0cde,16,1,TRUE,1,TRUE,Player 16,63,symmetric,"",3593,"{""""Q0"""":""""... <b>repeat</b> my clicks from the first round, in the same order""""}",[0],1,multichoice_reconstruction,"","","","",,,,,
,instructions,18,221400,0.0-4.0-7.0,6978a4c5f1475ddbda96cde5,601623c50446147b23a5bdff,6978ad4b63e6c52637ea0cde,16,1,TRUE,1,TRUE,Player 16,63,symmetric,"[{""""page_index"""":0,""""viewing_time"""":3100}]",3100,"","",,"","","","","",,,,,
,findSquares,19,245198,0.0-4.0-8.0,6978a4c5f1475ddbda96cde5,601623c50446147b23a5bdff,6978ad4b63e6c52637ea0cde,16,1,TRUE,1,TRUE,Player 16,63,symmetric,"",,"","",,memory,"[['0', '0', '0', '0', '0', '0'], ['1', '1', '0', '0', '1', '1'], ['0', '0', '0', '0', '0', '0'], ['1', '0', '0', '0', '0', '1'], ['1', '1', '0', '0', '1', '1'], ['0', '0', '0', '0', '0', '0']]","[[1, 1], [1, 5], [3, 5], [4, 0]]","{'i': [4, 2, 4, 1, 1, 1, 3, 4, 3, 4, 3], 'j': [1, 5, 5, 4, 2, 0, 4, 4, 1, 2, 0], 't': [1369, 7190, 8205, 11235, 12932, 14410, 16973, 17860, 20032, 20949, 21787], 'hit': ['1', '0', '1', '1', '0', '1', '0', '1', '0', '0', '1'], 'b': []}","[['unknown', 'unknown', 'unknown', 'unknown', 'unknown', 'unknown'], ['black', 'black', 'white', 'unknown', 'black', 'black'], ['unknown', 'unknown', 'unknown', 'unknown', 'unknown', 'white'], ['black', 'white', 'unknown', 'unknown', 'white', 'black'], ['black', 'black', 'white', 'unknown', 'black', 'black'], ['unknown', 'unknown', 'unknown', 'unknown', 'unknown', 'unknown']]",11,0,21,,1
,survey-text,20,247713,0.0-4.0-9.0,6978a4c5f1475ddbda96cde5,601623c50446147b23a5bdff,6978ad4b63e6c52637ea0cde,16,1,TRUE,1,TRUE,Player 16,63,symmetric,"",2511,"{""""worker_comments"""":""""""""}","",,"","","","","",,,,,
,instructions,21,250346,0.0-4.0-10.0,6978a4c5f1475ddbda96cde5,601623c50446147b23a5bdff,6978ad4b63e6c52637ea0cde,16,1,TRUE,1,TRUE,Player 16,63,symmetric,"[{""""page_index"""":0,""""viewing_time"""":2632}]",2632,"","",,"","","","","",,,,,
1,fullscreen,0,3949,0.0-0.0,6978a4c5f1475ddbda96cde5,67fbe860ceaf5c3054dd9654,6978ad4f0192585894169b6f,17,1,TRUE,1,TRUE,Player 17,54,asymmetric,"",,"","",,"","","","","",,,,,
,instructions,1,83000,0.0-1.0,6978a4c5f1475ddbda96cde5,67fbe860ceaf5c3054dd9654,6978ad4f0192585894169b6f,17,1,TRUE,1,TRUE,Player 17,54,asymmetric,"[{""""page_index"""":0,""""viewing_time"""":20399.60000000056},{""""page_index"""":1,""""viewing_time"""":20095},{""""page_index"""":2,""""viewing_time"""":15842.099999999627},{""""page_index"""":3,""""viewing_time"""":10062.100000000559},{""""page_index"""":4,""""viewing_time"""":12646.199999999255}]",79046.4000000004,"","",,"","","","","",,,,,
,survey-multi-choice,2,121319,0.0-2.0,6978a4c5f1475ddbda96cde5,67fbe860ceaf5c3054dd9654,6978ad4f0192585894169b6f,17,1,TRUE,1,TRUE,Player 17,54,asymmetric,"",38314.0999999996,"{""""Q0"""":""""... find all black cards whilst revealing as <b>few white cards</b> as possible""""}",[0],1,multichoice_part1,"","","","",,,,,
,instructions,3,125979,0.0-4.0-0.0,6978a4c5f1475ddbda96cde5,67fbe860ceaf5c3054dd9654,6978ad4f0192585894169b6f,17,1,TRUE,1,TRUE,Player 17,54,asymmetric,"[{""""page_index"""":0,""""viewing_time"""":4657.700000000186}]",4658.40000000037,"","",,"","","","","",,,,,
,findSquares,4,158578,0.0-4.0-1.0,6978a4c5f1475ddbda96cde5,67fbe860ceaf5c3054dd9654,6978ad4f0192585894169b6f,17,1,TRUE,1,TRUE,Player 17,54,asymmetric,"",,"","",,"","[['0', '0', '1', '0'], ['1', '1', '1', '1'], ['1', '1', '1', '0'], ['0', '0', '0', '0']]","[[2, 2]]","{'i': [1, 0, 2, 1, 3, 3, 2, 1, 1, 2, 3, 0], 'j': [1, 0, 1, 2, 1, 0, 0, 0, 3, 3, 2, 2], 't': [3044.100000000559, 4548.200000000186, 7153, 8242.800000000745, 16943.60000000056, 20214.10000000056, 21346.700000000186, 22435, 23252.60000000056, 23990.5, 29288.60000000056, 30579.10000000056], 'hit': ['1', '0', '1', '1', '0', '0', '1', '1', '1', '0', '0', '1'], 'b': []}","[['white', 'unknown', 'black', 'unknown'], ['black', 'black', 'black', 'black'], ['black', 'black', 'black', 'white'], ['white', 'white', 'white', 'unknown']]",12,0,3,,
,instructions,5,164860,0.0-4.0-2.0,6978a4c5f1475ddbda96cde5,67fbe860ceaf5c3054dd9654,6978ad4f0192585894169b6f,17,1,TRUE,1,TRUE,Player 17,54,asymmetric,"[{""""page_index"""":0,""""viewing_time"""":6279.200000000186}]",6280.30000000075,"","",,"","","","","",,,,,
,instructions,6,206047,0.0-4.0-3.0,6978a4c5f1475ddbda96cde5,67fbe860ceaf5c3054dd9654,6978ad4f0192585894169b6f,17,1,TRUE,1,TRUE,Player 17,54,asymmetric,"[{""""page_index"""":0,""""viewing_time"""":37137.40000000037},{""""page_index"""":1,""""viewing_time"""":4047.2999999998137}]",41185.2999999998,"","",,"","","","","",,,,,
,findSquares,7,246938,0.0-4.0-4.0-0.0,6978a4c5f1475ddbda96cde5,67fbe860ceaf5c3054dd9654,6978ad4f0192585894169b6f,17,1,TRUE,1,TRUE,Player 17,54,asymmetric,"",,"","",,non-pretend,"[['0', '0', '0', '0', '0', '0'], ['1', '1', '0', '0', '1', '1'], ['0', '0', '0', '0', '0', '0'], ['1', '0', '0', '0', '0', '1'], ['1', '1', '0', '0', '1', '1'], ['0', '0', '0', '0', '0', '0']]","[[1, 1], [1, 5], [3, 5], [4, 0]]","{'i': [1, 1, 4, 5, 3, 3, 2, 0, 0, 2, 3, 4, 2, 4, 4], 'j': [4, 0, 5, 5, 0, 1, 4, 1, 0, 1, 4, 3, 5, 1, 4], 't': [3775.5, 6217.200000000186, 11929, 13059.899999999441, 14878.700000000186, 18189.099999999627, 21504.299999999814, 26795.599999999627, 27883.5, 29197.099999999627, 31033, 32184.799999999814, 35182.09999999963, 37255, 38868.89999999944], 'hit': ['1', '1', '1', '0', '1', '0', '0', '0', '0', '0', '0', '0', '0', '1', '1'], 'b': []}","[['white', 'white', 'unknown', 'unknown', 'unknown', 'unknown'], ['black', 'black', 'unknown', 'unknown', 'black', 'black'], ['unknown', 'white', 'unknown', 'unknown', 'white', 'white'], ['black', 'white', 'unknown', 'unknown', 'white', 'black'], ['black', 'black', 'unknown', 'white', 'black', 'black'], ['unknown', 'unknown', 'unknown', 'unknown', 'unknown', 'white']]",15,0,17,,1
,instructions,8,250299,0.0-4.0-4.0-1.0,6978a4c5f1475ddbda96cde5,67fbe860ceaf5c3054dd9654,6978ad4f0192585894169b6f,17,1,TRUE,1,TRUE,Player 17,54,asymmetric,"[{""""page_index"""":0,""""viewing_time"""":3358.899999999441}]",3359.89999999944,"","",,"","","","","",,,,,
,findSquares,9,300161,0.0-4.0-4.0-0.1,6978a4c5f1475ddbda96cde5,67fbe860ceaf5c3054dd9654,6978ad4f0192585894169b6f,17,1,TRUE,1,TRUE,Player 17,54,asymmetric,"",,"","",,non-pretend,"[['1', '1', '1', '0', '0', '1'], ['0', '0', '0', '0', '0', '1'], ['0', '0', '0', '0', '0', '0'], ['0', '0', '0', '0', '1', '0'], ['1', '1', '0', '1', '1', '0'], ['0', '0', '0', '0', '0', '0']]","[[0, 1], [0, 5], [4, 0], [4, 4]]","{'i': [0, 0, 4, 1, 3, 4, 4, 1, 1, 5, 4, 3, 1, 3, 3, 3, 2, 5, 5, 5, 2, 0], 'j': [0, 4, 5, 0, 0, 1, 3, 5, 4, 3, 2, 1, 1, 4, 3, 5, 4, 4, 1, 0, 5, 2], 't': [2239.199999999255, 3520.699999999255, 4651.199999999255, 11015.599999999627, 12994.599999999627, 13922.699999999255, 15154.5, 17632.199999999255, 22634.599999999627, 24018.299999999814, 26177.39999999944, 27248.099999999627, 29755.5, 31569.699999999255, 32553.599999999627, 33802.09999999963, 35003.59999999963, 36737.199999999255, 39042.59999999963, 40051.5, 43738.89999999944, 47846.199999999255], 'hit': ['1', '0', '0', '0', '0', '1', '1', '1', '0', '0', '0', '0', '0', '1', '0', '0', '0', '0', '0', '0', '0', '1'], 'b': []}","[['black', 'black', 'black', 'unknown', 'white', 'black'], ['white', 'white', 'unknown', 'unknown', 'white', 'black'], ['unknown', 'unknown', 'unknown', 'unknown', 'white', 'white'], ['white', 'white', 'unknown', 'white', 'black', 'white'], ['black', 'black', 'white', 'black', 'black', 'white'], ['white', 'white', 'unknown', 'white', 'white', 'unknown']]",22,0,10,,10
,instructions,10,302760,0.0-4.0-4.0-1.1,6978a4c5f1475ddbda96cde5,67fbe860ceaf5c3054dd9654,6978ad4f0192585894169b6f,17,1,TRUE,1,TRUE,Player 17,54,asymmetric,"[{""""page_index"""":0,""""viewing_time"""":2596.2000000001863}]",2597.40000000037,"","",,"","","","","",,,,,
,findSquares,11,332650,0.0-4.0-4.0-0.2,6978a4c5f1475ddbda96cde5,67fbe860ceaf5c3054dd9654,6978ad4f0192585894169b6f,17,1,TRUE,1,TRUE,Player 17,54,asymmetric,"",,"","",,non-pretend,"[['0', '0', '0', '0', '0', '0'], ['0', '0', '0', '0', '0', '0'], ['0', '1', '1', '1', '0', '0'], ['0', '0', '1', '0', '0', '1'], ['1', '1', '0', '0', '0', '1'], ['1', '0', '0', '0', '0', '1']]","[[2, 2], [4, 1], [4, 5]]","{'i': [4, 5, 3, 3, 5, 4, 3, 3, 4, 5, 5, 2, 1, 1, 2, 3, 3, 2], 'j': [4, 5, 5, 4, 4, 2, 1, 0, 0, 0, 1, 1, 1, 2, 0, 2, 3, 3], 't': [5399.700000000186, 6518.9000000003725, 7520.9000000003725, 8589.600000000559, 10491.600000000559, 11966.400000000373, 12954.5, 13884, 14621, 15539.600000000559, 16438, 19366.400000000373, 20225.60000000056, 22209.700000000186, 23578.799999999814, 25405.700000000186, 26879.799999999814, 27868.5], 'hit': ['0', '1', '1', '0', '0', '0', '0', '0', '1', '1', '0', '1', '0', '0', '0', '1', '0', '1'], 'b': []}","[['unknown', 'unknown', 'unknown', 'unknown', 'unknown', 'unknown'], ['unknown', 'white', 'white', 'unknown', 'unknown', 'unknown'], ['white', 'black', 'black', 'black', 'unknown', 'unknown'], ['white', 'white', 'black', 'white', 'white', 'black'], ['black', 'black', 'white', 'unknown', 'white', 'black'], ['black', 'white', 'unknown', 'unknown', 'white', 'black']]",18,0,15,,8
,instructions,12,336367,0.0-4.0-4.0-1.2,6978a4c5f1475ddbda96cde5,67fbe860ceaf5c3054dd9654,6978ad4f0192585894169b6f,17,1,TRUE,1,TRUE,Player 17,54,asymmetric,"[{""""page_index"""":0,""""viewing_time"""":3714.600000000559}]",3715.60000000056,"","",,"","","","","",,,,,
,findSquares,13,372520,0.0-4.0-4.0-0.3,6978a4c5f1475ddbda96cde5,67fbe860ceaf5c3054dd9654,6978ad4f0192585894169b6f,17,1,TRUE,1,TRUE,Player 17,54,asymmetric,"",,"","",,non-pretend,"[['0', '0', '0', '0', '0', '0'], ['0', '0', '1', '1', '0', '0'], ['0', '0', '1', '0', '0', '0'], ['0', '1', '0', '0', '1', '0'], ['0', '1', '0', '0', '1', '1'], ['0', '1', '0', '0', '1', '0']]","[[1, 2], [4, 4], [5, 1]]","{'i': [5, 4, 5, 3, 2, 3, 1, 0, 1, 2, 4, 5, 4, 5, 5, 3, 2, 1, 0, 4, 3], 'j': [2, 1, 0, 1, 1, 0, 1, 2, 3, 3, 3, 4, 5, 5, 3, 2, 2, 4, 3, 2, 4], 't': [2013.2999999998137, 3975.7999999998137, 8012, 10105, 11587.200000000186, 12888.600000000559, 14517.200000000186, 15411.600000000559, 16182.299999999814, 17999, 19381.5, 21158, 22187.299999999814, 23044.900000000373, 24649.5, 26728.400000000373, 27899.799999999814, 28908, 30049.60000000056, 32979.5, 34140], 'hit': ['0', '1', '0', '1', '0', '0', '0', '0', '1', '0', '0', '1', '1', '0', '0', '0', '1', '0', '0', '0', '1'], 'b': []}","[['unknown', 'unknown', 'white', 'white', 'unknown', 'unknown'], ['unknown', 'white', 'black', 'black', 'white', 'unknown'], ['unknown', 'white', 'black', 'white', 'unknown', 'unknown'], ['white', 'black', 'white', 'unknown', 'black', 'unknown'], ['unknown', 'black', 'white', 'white', 'black', 'black'], ['white', 'black', 'white', 'white', 'black', 'white']]",21,0,12,,9
,instructions,14,375331,0.0-4.0-4.0-1.3,6978a4c5f1475ddbda96cde5,67fbe860ceaf5c3054dd9654,6978ad4f0192585894169b6f,17,1,TRUE,1,TRUE,Player 17,54,asymmetric,"[{""""page_index"""":0,""""viewing_time"""":2807.699999999255}]",2809,"","",,"","","","","",,,,,
,instructions,15,377227,0.0-4.0-5.0,6978a4c5f1475ddbda96cde5,67fbe860ceaf5c3054dd9654,6978ad4f0192585894169b6f,17,1,TRUE,1,TRUE,Player 17,54,asymmetric,"[{""""page_index"""":0,""""viewing_time"""":1894.3999999994412}]",1895.20000000019,"","",,"","","","","",,,,,
,instructions,16,416721,0.0-4.0-6.0-0.0,6978a4c5f1475ddbda96cde5,67fbe860ceaf5c3054dd9654,6978ad4f0192585894169b6f,17,1,TRUE,1,TRUE,Player 17,54,asymmetric,"[{""""page_index"""":0,""""viewing_time"""":9747.800000000745},{""""page_index"""":1,""""viewing_time"""":13464.399999999441},{""""page_index"""":2,""""viewing_time"""":4086.7000000001863},{""""page_index"""":3,""""viewing_time"""":12192}]",39491.5,"","",,"","","","","",,,,,
,survey-multi-choice,17,423111,0.0-4.0-6.0-1.0,6978a4c5f1475ddbda96cde5,67fbe860ceaf5c3054dd9654,6978ad4f0192585894169b6f,17,1,TRUE,1,TRUE,Player 17,54,asymmetric,"",6385.89999999944,"{""""Q0"""":""""... <b>repeat</b> my clicks from the first round, in the same order""""}",[0],1,multichoice_reconstruction,"","","","",,,,,
,instructions,18,428328,0.0-4.0-7.0,6978a4c5f1475ddbda96cde5,67fbe860ceaf5c3054dd9654,6978ad4f0192585894169b6f,17,1,TRUE,1,TRUE,Player 17,54,asymmetric,"[{""""page_index"""":0,""""viewing_time"""":5212.799999999814}]",5213.59999999963,"","",,"","","","","",,,,,
,findSquares,19,473719,0.0-4.0-8.0,6978a4c5f1475ddbda96cde5,67fbe860ceaf5c3054dd9654,6978ad4f0192585894169b6f,17,1,TRUE,1,TRUE,Player 17,54,asymmetric,"",,"","",,memory,"[['0', '0', '0', '0', '0', '0'], ['1', '1', '0', '0', '1', '1'], ['0', '0', '0', '0', '0', '0'], ['1', '0', '0', '0', '0', '1'], ['1', '1', '0', '0', '1', '1'], ['0', '0', '0', '0', '0', '0']]","[[1, 1], [1, 5], [3, 5], [4, 0]]","{'i': [4, 0, 4, 3, 1, 0, 1, 1, 1, 5, 3, 3, 4, 4, 5, 4, 2, 2, 2, 5, 5, 5, 2, 0, 0, 3], 'j': [1, 1, 5, 4, 4, 5, 3, 2, 0, 1, 1, 2, 2, 4, 4, 3, 5, 1, 4, 0, 5, 3, 0, 0, 4, 0], 't': [4636, 8277.299999999814, 12567.100000000559, 14831, 16336.100000000559, 17143.299999999814, 17973.5, 18768.799999999814, 19899, 21565.799999999814, 22422.900000000373, 23341.5, 24078, 26258.299999999814, 27049.299999999814, 28369.400000000373, 30138, 31287.900000000373, 32216.60000000056, 33641.40000000037, 34660.299999999814, 36337.10000000056, 37825.40000000037, 38977.700000000186, 39975.60000000056, 43369.10000000056], 'hit': ['1', '0', '1', '0', '1', '0', '0', '0', '1', '0', '0', '0', '0', '1', '0', '0', '0', '0', '0', '0', '0', '0', '0', '0', '0', '1'], 'b': []}","[['white', 'white', 'unknown', 'unknown', 'white', 'white'], ['black', 'black', 'white', 'white', 'black', 'black'], ['white', 'white', 'unknown', 'unknown', 'white', 'white'], ['black', 'white', 'white', 'unknown', 'white', 'black'], ['black', 'black', 'white', 'white', 'black', 'black'], ['white', 'white', 'unknown', 'white', 'white', 'white']]",26,0,6,,1
,survey-text,20,477564,0.0-4.0-9.0,6978a4c5f1475ddbda96cde5,67fbe860ceaf5c3054dd9654,6978ad4f0192585894169b6f,17,1,TRUE,1,TRUE,Player 17,54,asymmetric,"",3836.60000000056,"{""""worker_comments"""":""""""""}","",,"","","","","",,,,,
,instructions,21,486156,0.0-4.0-10.0,6978a4c5f1475ddbda96cde5,67fbe860ceaf5c3054dd9654,6978ad4f0192585894169b6f,17,1,TRUE,1,TRUE,Player 17,54,asymmetric,"[{""""page_index"""":0,""""viewing_time"""":8589}]",8590,"","",,"","","","","",,,,,
1,fullscreen,0,2485,0.0-0.0,6978a4c5f1475ddbda96cde5,580d5d1f357e890001dd14ce,6978ae37d13c331c5ce3fac3,18,1,TRUE,1,TRUE,Player 18,56,asymmetric,"",,"","",,"","","","","",,,,,
,instructions,1,28953,0.0-1.0,6978a4c5f1475ddbda96cde5,580d5d1f357e890001dd14ce,6978ae37d13c331c5ce3fac3,18,1,TRUE,1,TRUE,Player 18,56,asymmetric,"[{""""page_index"""":0,""""viewing_time"""":6888},{""""page_index"""":1,""""viewing_time"""":4112},{""""page_index"""":2,""""viewing_time"""":9288},{""""page_index"""":3,""""viewing_time"""":2326},{""""page_index"""":4,""""viewing_time"""":3852}]",26466,"","",,"","","","","",,,,,
,survey-multi-choice,2,37287,0.0-2.0,6978a4c5f1475ddbda96cde5,580d5d1f357e890001dd14ce,6978ae37d13c331c5ce3fac3,18,1,TRUE,1,TRUE,Player 18,56,asymmetric,"",8334,"{""""Q0"""":""""... find all black cards whilst revealing as <b>few white cards</b> as possible""""}",[0],1,multichoice_part1,"","","","",,,,,
,instructions,3,38992,0.0-4.0-0.0,6978a4c5f1475ddbda96cde5,580d5d1f357e890001dd14ce,6978ae37d13c331c5ce3fac3,18,1,TRUE,1,TRUE,Player 18,56,asymmetric,"[{""""page_index"""":0,""""viewing_time"""":1705}]",1705,"","",,"","","","","",,,,,
,findSquares,4,53443,0.0-4.0-1.0,6978a4c5f1475ddbda96cde5,580d5d1f357e890001dd14ce,6978ae37d13c331c5ce3fac3,18,1,TRUE,1,TRUE,Player 18,56,asymmetric,"",,"","",,"","[['0', '0', '1', '0'], ['1', '1', '1', '1'], ['1', '1', '1', '0'], ['0', '0', '0', '0']]","[[2, 2]]","{'i': [2, 1, 0, 0, 1, 0, 1, 1, 0, 2, 2], 'j': [3, 3, 3, 2, 2, 1, 1, 0, 0, 0, 1], 't': [4153, 5413, 6295, 7046, 7611, 8282, 9103, 9936, 10721, 11393, 12434], 'hit': ['0', '1', '0', '1', '1', '0', '1', '1', '0', '1', '1'], 'b': []}","[['white', 'white', 'black', 'white'], ['black', 'black', 'black', 'black'], ['black', 'black', 'black', 'white'], ['unknown', 'unknown', 'unknown', 'unknown']]",11,0,4,,
,instructions,5,55786,0.0-4.0-2.0,6978a4c5f1475ddbda96cde5,580d5d1f357e890001dd14ce,6978ae37d13c331c5ce3fac3,18,1,TRUE,1,TRUE,Player 18,56,asymmetric,"[{""""page_index"""":0,""""viewing_time"""":2342}]",2342,"","",,"","","","","",,,,,
,instructions,6,69983,0.0-4.0-3.0,6978a4c5f1475ddbda96cde5,580d5d1f357e890001dd14ce,6978ae37d13c331c5ce3fac3,18,1,TRUE,1,TRUE,Player 18,56,asymmetric,"[{""""page_index"""":0,""""viewing_time"""":12031},{""""page_index"""":1,""""viewing_time"""":2166}]",14197,"","",,"","","","","",,,,,
,findSquares,7,95556,0.0-4.0-4.0-0.0,6978a4c5f1475ddbda96cde5,580d5d1f357e890001dd14ce,6978ae37d13c331c5ce3fac3,18,1,TRUE,1,TRUE,Player 18,56,asymmetric,"",,"","",,non-pretend,"[['0', '0', '0', '0', '0', '0'], ['1', '1', '0', '0', '1', '1'], ['0', '0', '0', '0', '0', '0'], ['1', '0', '0', '0', '0', '1'], ['1', '1', '0', '0', '1', '1'], ['0', '0', '0', '0', '0', '0']]","[[1, 1], [1, 5], [3, 5], [4, 0]]","{'i': [4, 3, 3, 5, 3, 4, 1, 2, 1, 1, 2, 2, 0, 0, 0, 1, 2, 5, 5, 4], 'j': [1, 0, 1, 1, 4, 5, 4, 5, 2, 0, 1, 0, 1, 0, 4, 3, 4, 0, 5, 4], 't': [1354, 2880, 4416, 6211, 7899, 8901, 10293, 11210, 12251, 12963, 13751, 14403, 15222, 15900, 17818, 19109, 20687, 22024, 23085, 23571], 'hit': ['1', '1', '0', '0', '0', '1', '1', '0', '0', '1', '0', '0', '0', '0', '0', '0', '0', '0', '0', '1'], 'b': []}","[['white', 'white', 'unknown', 'unknown', 'white', 'unknown'], ['black', 'black', 'white', 'white', 'black', 'black'], ['white', 'white', 'unknown', 'unknown', 'white', 'white'], ['black', 'white', 'unknown', 'unknown', 'white', 'black'], ['black', 'black', 'unknown', 'unknown', 'black', 'black'], ['white', 'white', 'unknown', 'unknown', 'unknown', 'white']]",20,0,12,,1
,instructions,8,97574,0.0-4.0-4.0-1.0,6978a4c5f1475ddbda96cde5,580d5d1f357e890001dd14ce,6978ae37d13c331c5ce3fac3,18,1,TRUE,1,TRUE,Player 18,56,asymmetric,"[{""""page_index"""":0,""""viewing_time"""":2018}]",2018,"","",,"","","","","",,,,,
,findSquares,9,116993,0.0-4.0-4.0-0.1,6978a4c5f1475ddbda96cde5,580d5d1f357e890001dd14ce,6978ae37d13c331c5ce3fac3,18,1,TRUE,1,TRUE,Player 18,56,asymmetric,"",,"","",,non-pretend,"[['0', '0', '0', '0', '0', '0'], ['0', '0', '0', '0', '0', '0'], ['0', '1', '1', '1', '0', '0'], ['0', '0', '1', '0', '0', '1'], ['1', '1', '0', '0', '0', '1'], ['1', '0', '0', '0', '0', '1']]","[[2, 2], [4, 1], [4, 5]]","{'i': [4, 4, 3, 5, 2, 2, 4, 1, 3, 3, 5, 5, 2, 2, 1, 3], 'j': [0, 4, 5, 5, 3, 1, 2, 2, 1, 0, 0, 1, 5, 4, 3, 2], 't': [1071, 2414, 3317, 4323, 6274, 7070, 8756, 9685, 10715, 11776, 12537, 13195, 14588, 15644, 16401, 17408], 'hit': ['1', '0', '1', '1', '1', '1', '0', '0', '0', '0', '1', '0', '0', '0', '0', '1'], 'b': []}","[['unknown', 'unknown', 'unknown', 'unknown', 'unknown', 'unknown'], ['unknown', 'unknown', 'white', 'white', 'unknown', 'unknown'], ['unknown', 'black', 'black', 'black', 'white', 'white'], ['white', 'white', 'black', 'unknown', 'unknown', 'black'], ['black', 'black', 'white', 'unknown', 'white', 'black'], ['black', 'white', 'unknown', 'unknown', 'unknown', 'black']]",16,0,17,,8
,instructions,10,118717,0.0-4.0-4.0-1.1,6978a4c5f1475ddbda96cde5,580d5d1f357e890001dd14ce,6978ae37d13c331c5ce3fac3,18,1,TRUE,1,TRUE,Player 18,56,asymmetric,"[{""""page_index"""":0,""""viewing_time"""":1725}]",1725,"","",,"","","","","",,,,,
,findSquares,11,137287,0.0-4.0-4.0-0.2,6978a4c5f1475ddbda96cde5,580d5d1f357e890001dd14ce,6978ae37d13c331c5ce3fac3,18,1,TRUE,1,TRUE,Player 18,56,asymmetric,"",,"","",,non-pretend,"[['1', '1', '1', '0', '0', '1'], ['0', '0', '0', '0', '0', '1'], ['0', '0', '0', '0', '0', '0'], ['0', '0', '0', '0', '1', '0'], ['1', '1', '0', '1', '1', '0'], ['0', '0', '0', '0', '0', '0']]","[[0, 1], [0, 5], [4, 0], [4, 4]]","{'i': [4, 4, 4, 0, 0, 0, 1, 2, 1, 1, 1, 4, 3, 3, 5, 5, 5, 5, 3], 'j': [1, 5, 3, 0, 2, 4, 5, 5, 1, 0, 2, 2, 0, 1, 0, 1, 3, 4, 4], 't': [1247, 2477, 3426, 4989, 5778, 6569, 7509, 8831, 10141, 10787, 11699, 12398, 13330, 13839, 14333, 14797, 15342, 15902, 16564], 'hit': ['1', '0', '1', '1', '1', '0', '1', '0', '0', '0', '0', '0', '0', '0', '0', '0', '0', '0', '1'], 'b': []}","[['black', 'black', 'black', 'unknown', 'white', 'black'], ['white', 'white', 'white', 'unknown', 'unknown', 'black'], ['unknown', 'unknown', 'unknown', 'unknown', 'unknown', 'white'], ['white', 'white', 'unknown', 'unknown', 'black', 'unknown'], ['black', 'black', 'white', 'black', 'black', 'white'], ['white', 'white', 'unknown', 'white', 'white', 'unknown']]",19,0,13,,10
,instructions,12,138597,0.0-4.0-4.0-1.2,6978a4c5f1475ddbda96cde5,580d5d1f357e890001dd14ce,6978ae37d13c331c5ce3fac3,18,1,TRUE,1,TRUE,Player 18,56,asymmetric,"[{""""page_index"""":0,""""viewing_time"""":1310}]",1310,"","",,"","","","","",,,,,
,findSquares,13,158747,0.0-4.0-4.0-0.3,6978a4c5f1475ddbda96cde5,580d5d1f357e890001dd14ce,6978ae37d13c331c5ce3fac3,18,1,TRUE,1,TRUE,Player 18,56,asymmetric,"",,"","",,non-pretend,"[['0', '0', '0', '0', '0', '0'], ['0', '0', '1', '1', '0', '0'], ['0', '0', '1', '0', '0', '0'], ['0', '1', '0', '0', '1', '0'], ['0', '1', '0', '0', '1', '1'], ['0', '1', '0', '0', '1', '0']]","[[1, 2], [4, 4], [5, 1]]","{'i': [1, 1, 4, 5, 5, 5, 4, 3, 1, 0, 3, 2, 2, 0, 2, 5, 4, 5, 3], 'j': [1, 3, 5, 4, 0, 2, 1, 1, 4, 2, 2, 2, 3, 3, 1, 5, 3, 3, 4], 't': [1096, 2350, 3338, 3986, 5275, 6241, 6885, 8075, 9335, 10861, 11499, 12014, 12467, 13498, 14967, 15967, 16946, 17547, 18137], 'hit': ['0', '1', '1', '1', '0', '0', '1', '1', '0', '0', '0', '1', '0', '0', '0', '0', '0', '0', '1'], 'b': []}","[['unknown', 'unknown', 'white', 'white', 'unknown', 'unknown'], ['unknown', 'white', 'black', 'black', 'white', 'unknown'], ['unknown', 'white', 'black', 'white', 'unknown', 'unknown'], ['unknown', 'black', 'white', 'unknown', 'black', 'unknown'], ['unknown', 'black', 'unknown', 'white', 'black', 'black'], ['white', 'black', 'white', 'white', 'black', 'white']]",19,0,14,,9
,instructions,14,160130,0.0-4.0-4.0-1.3,6978a4c5f1475ddbda96cde5,580d5d1f357e890001dd14ce,6978ae37d13c331c5ce3fac3,18,1,TRUE,1,TRUE,Player 18,56,asymmetric,"[{""""page_index"""":0,""""viewing_time"""":1382}]",1382,"","",,"","","","","",,,,,
,instructions,15,162248,0.0-4.0-5.0,6978a4c5f1475ddbda96cde5,580d5d1f357e890001dd14ce,6978ae37d13c331c5ce3fac3,18,1,TRUE,1,TRUE,Player 18,56,asymmetric,"[{""""page_index"""":0,""""viewing_time"""":2117}]",2117,"","",,"","","","","",,,,,
,instructions,16,175466,0.0-4.0-6.0-0.0,6978a4c5f1475ddbda96cde5,580d5d1f357e890001dd14ce,6978ae37d13c331c5ce3fac3,18,1,TRUE,1,TRUE,Player 18,56,asymmetric,"[{""""page_index"""":0,""""viewing_time"""":2861},{""""page_index"""":1,""""viewing_time"""":3622},{""""page_index"""":2,""""viewing_time"""":1825},{""""page_index"""":3,""""viewing_time"""":4910}]",13218,"","",,"","","","","",,,,,
,survey-multi-choice,17,179408,0.0-4.0-6.0-1.0,6978a4c5f1475ddbda96cde5,580d5d1f357e890001dd14ce,6978ae37d13c331c5ce3fac3,18,1,TRUE,1,TRUE,Player 18,56,asymmetric,"",3942,"{""""Q0"""":""""... <b>repeat</b> my clicks from the first round, in the same order""""}",[0],1,multichoice_reconstruction,"","","","",,,,,
,instructions,18,182875,0.0-4.0-7.0,6978a4c5f1475ddbda96cde5,580d5d1f357e890001dd14ce,6978ae37d13c331c5ce3fac3,18,1,TRUE,1,TRUE,Player 18,56,asymmetric,"[{""""page_index"""":0,""""viewing_time"""":3466}]",3466,"","",,"","","","","",,,,,
,findSquares,19,192810,0.0-4.0-8.0,6978a4c5f1475ddbda96cde5,580d5d1f357e890001dd14ce,6978ae37d13c331c5ce3fac3,18,1,TRUE,1,TRUE,Player 18,56,asymmetric,"",,"","",,memory,"[['0', '0', '0', '0', '0', '0'], ['1', '1', '0', '0', '1', '1'], ['0', '0', '0', '0', '0', '0'], ['1', '0', '0', '0', '0', '1'], ['1', '1', '0', '0', '1', '1'], ['0', '0', '0', '0', '0', '0']]","[[1, 1], [1, 5], [3, 5], [4, 0]]","{'i': [5, 4, 3, 2, 1, 2, 1, 1, 2, 4, 4], 'j': [1, 1, 0, 1, 2, 3, 0, 4, 5, 5, 4], 't': [777, 1627, 2324, 3332, 4041, 4613, 5277, 6049, 6723, 7306, 7933], 'hit': ['0', '1', '1', '0', '0', '0', '1', '1', '0', '1', '1'], 'b': []}","[['unknown', 'unknown', 'unknown', 'unknown', 'unknown', 'unknown'], ['black', 'black', 'white', 'unknown', 'black', 'black'], ['unknown', 'white', 'unknown', 'white', 'unknown', 'white'], ['black', 'unknown', 'unknown', 'unknown', 'unknown', 'black'], ['black', 'black', 'unknown', 'unknown', 'black', 'black'], ['unknown', 'white', 'unknown', 'unknown', 'unknown', 'unknown']]",11,0,21,,1
,survey-text,20,200638,0.0-4.0-9.0,6978a4c5f1475ddbda96cde5,580d5d1f357e890001dd14ce,6978ae37d13c331c5ce3fac3,18,1,TRUE,1,TRUE,Player 18,56,asymmetric,"",7817,"{""""worker_comments"""":""""""""}","",,"","","","","",,,,,
,instructions,21,203814,0.0-4.0-10.0,6978a4c5f1475ddbda96cde5,580d5d1f357e890001dd14ce,6978ae37d13c331c5ce3fac3,18,1,TRUE,1,TRUE,Player 18,56,asymmetric,"[{""""page_index"""":0,""""viewing_time"""":3176}]",3176,"","",,"","","","","",,,,,
1,fullscreen,0,2983,0.0-0.0,6978a4c5f1475ddbda96cde5,60719f4b18e2b30c9e5a562d,6978ae40048efb86a72e15bf,19,1,TRUE,1,TRUE,Player 19,32,symmetric,"",,"","",,"","","","","",,,,,
,instructions,1,39375,0.0-1.0,6978a4c5f1475ddbda96cde5,60719f4b18e2b30c9e5a562d,6978ae40048efb86a72e15bf,19,1,TRUE,1,TRUE,Player 19,32,symmetric,"[{""""page_index"""":0,""""viewing_time"""":9465},{""""page_index"""":1,""""viewing_time"""":6240},{""""page_index"""":2,""""viewing_time"""":6745},{""""page_index"""":3,""""viewing_time"""":4696},{""""page_index"""":4,""""viewing_time"""":9239}]",36385,"","",,"","","","","",,,,,
,survey-multi-choice,2,62753,0.0-2.0,6978a4c5f1475ddbda96cde5,60719f4b18e2b30c9e5a562d,6978ae40048efb86a72e15bf,19,1,TRUE,1,TRUE,Player 19,32,symmetric,"",23374,"{""""Q0"""":""""... find all black cards whilst revealing as <b>few white cards</b> as possible""""}",[0],1,multichoice_part1,"","","","",,,,,
,instructions,3,64335,0.0-4.0-0.0,6978a4c5f1475ddbda96cde5,60719f4b18e2b30c9e5a562d,6978ae40048efb86a72e15bf,19,1,TRUE,1,TRUE,Player 19,32,symmetric,"[{""""page_index"""":0,""""viewing_time"""":1581}]",1581,"","",,"","","","","",,,,,
,findSquares,4,79763,0.0-4.0-1.0,6978a4c5f1475ddbda96cde5,60719f4b18e2b30c9e5a562d,6978ae40048efb86a72e15bf,19,1,TRUE,1,TRUE,Player 19,32,symmetric,"",,"","",,"","[['0', '0', '0', '0'], ['1', '1', '1', '1'], ['1', '1', '1', '1'], ['0', '0', '0', '0']]","[[2, 2]]","{'i': [1, 0, 2, 3, 3, 2, 1, 1, 1, 2], 'j': [1, 0, 1, 1, 2, 3, 3, 2, 0, 0], 't': [2609, 3955, 5162, 6066, 7219, 8458, 9889, 11257, 12442, 13403], 'hit': ['1', '0', '1', '0', '0', '1', '1', '1', '1', '1'], 'b': []}","[['white', 'unknown', 'unknown', 'unknown'], ['black', 'black', 'black', 'black'], ['black', 'black', 'black', 'black'], ['unknown', 'white', 'white', 'unknown']]",10,0,5,,
,instructions,5,84215,0.0-4.0-2.0,6978a4c5f1475ddbda96cde5,60719f4b18e2b30c9e5a562d,6978ae40048efb86a72e15bf,19,1,TRUE,1,TRUE,Player 19,32,symmetric,"[{""""page_index"""":0,""""viewing_time"""":4451}]",4451,"","",,"","","","","",,,,,
,instructions,6,101255,0.0-4.0-3.0,6978a4c5f1475ddbda96cde5,60719f4b18e2b30c9e5a562d,6978ae40048efb86a72e15bf,19,1,TRUE,1,TRUE,Player 19,32,symmetric,"[{""""page_index"""":0,""""viewing_time"""":15222},{""""page_index"""":1,""""viewing_time"""":1817}]",17039,"","",,"","","","","",,,,,
,findSquares,7,156228,0.0-4.0-4.0-0.0,6978a4c5f1475ddbda96cde5,60719f4b18e2b30c9e5a562d,6978ae40048efb86a72e15bf,19,1,TRUE,1,TRUE,Player 19,32,symmetric,"",,"","",,non-pretend,"[['0', '0', '0', '0', '0', '0'], ['1', '1', '0', '0', '1', '1'], ['0', '0', '0', '0', '0', '0'], ['1', '0', '0', '0', '0', '1'], ['1', '1', '0', '0', '1', '1'], ['0', '0', '0', '0', '0', '0']]","[[1, 1], [1, 5], [3, 5], [4, 0]]","{'i': [1, 2, 1, 3, 4, 3, 4, 2, 0, 1, 2, 2, 5, 5, 5, 3, 2, 0, 0, 0, 2, 0, 0, 4, 3, 5, 4, 5, 5, 3], 'j': [2, 1, 0, 1, 1, 4, 5, 5, 5, 4, 3, 4, 3, 2, 1, 2, 2, 2, 0, 1, 0, 3, 4, 3, 3, 4, 4, 5, 0, 0], 't': [2430, 3646, 5288, 7493, 8488, 10422, 11638, 13334, 14558, 15550, 18574, 20288, 21705, 22565, 23672, 25549, 26550, 27957, 29341, 30493, 31877, 36510, 38688, 41239, 42830, 45197, 47445, 49781, 51549, 52957], 'hit': ['0', '0', '1', '0', '1', '0', '1', '0', '0', '1', '0', '0', '0', '0', '0', '0', '0', '0', '0', '0', '0', '0', '0', '0', '0', '0', '1', '0', '0', '1'], 'b': []}","[['white', 'white', 'white', 'white', 'white', 'white'], ['black', 'black', 'white', 'unknown', 'black', 'black'], ['white', 'white', 'white', 'white', 'white', 'white'], ['black', 'white', 'white', 'white', 'white', 'black'], ['black', 'black', 'unknown', 'white', 'black', 'black'], ['white', 'white', 'white', 'white', 'white', 'white']]",30,0,2,,1
,instructions,8,159543,0.0-4.0-4.0-1.0,6978a4c5f1475ddbda96cde5,60719f4b18e2b30c9e5a562d,6978ae40048efb86a72e15bf,19,1,TRUE,1,TRUE,Player 19,32,symmetric,"[{""""page_index"""":0,""""viewing_time"""":3315}]",3315,"","",,"","","","","",,,,,
,findSquares,9,200177,0.0-4.0-4.0-0.1,6978a4c5f1475ddbda96cde5,60719f4b18e2b30c9e5a562d,6978ae40048efb86a72e15bf,19,1,TRUE,1,TRUE,Player 19,32,symmetric,"",,"","",,non-pretend,"[['0', '0', '0', '0', '0', '0'], ['0', '0', '1', '1', '0', '0'], ['0', '0', '1', '1', '0', '0'], ['0', '1', '0', '0', '1', '0'], ['0', '1', '0', '0', '1', '0'], ['0', '1', '0', '0', '1', '0']]","[[1, 2], [4, 4], [5, 1]]","{'i': [1, 2, 4, 5, 5, 5, 4, 1, 0, 2, 2, 3, 0, 3, 3, 2, 1, 3, 2, 3, 4, 4, 5, 3], 'j': [1, 2, 3, 4, 0, 2, 1, 5, 4, 4, 0, 0, 0, 5, 3, 3, 3, 1, 1, 2, 2, 0, 3, 4], 't': [1953, 3271, 5007, 6480, 7969, 9343, 10185, 12472, 13769, 15160, 17035, 17975, 19375, 22007, 23991, 25703, 27527, 31864, 33087, 34111, 34960, 36402, 37418, 38619], 'hit': ['0', '1', '0', '1', '0', '0', '1', '0', '0', '0', '0', '0', '0', '0', '0', '1', '1', '1', '0', '0', '0', '0', '0', '1'], 'b': []}","[['white', 'unknown', 'unknown', 'unknown', 'white', 'unknown'], ['unknown', 'white', 'black', 'black', 'unknown', 'white'], ['white', 'white', 'black', 'black', 'white', 'unknown'], ['white', 'black', 'white', 'white', 'black', 'white'], ['white', 'black', 'white', 'white', 'black', 'unknown'], ['white', 'black', 'white', 'white', 'black', 'unknown']]",24,0,9,,3
,instructions,10,202455,0.0-4.0-4.0-1.1,6978a4c5f1475ddbda96cde5,60719f4b18e2b30c9e5a562d,6978ae40048efb86a72e15bf,19,1,TRUE,1,TRUE,Player 19,32,symmetric,"[{""""page_index"""":0,""""viewing_time"""":2277}]",2277,"","",,"","","","","",,,,,
,findSquares,11,229979,0.0-4.0-4.0-0.2,6978a4c5f1475ddbda96cde5,60719f4b18e2b30c9e5a562d,6978ae40048efb86a72e15bf,19,1,TRUE,1,TRUE,Player 19,32,symmetric,"",,"","",,non-pretend,"[['0', '0', '0', '0', '0', '0'], ['0', '0', '0', '0', '0', '0'], ['0', '0', '1', '1', '0', '0'], ['0', '0', '1', '1', '0', '0'], ['1', '1', '0', '0', '1', '1'], ['1', '0', '0', '0', '0', '1']]","[[2, 2], [4, 1], [4, 5]]","{'i': [2, 1, 2, 4, 4, 5, 3, 2, 0, 0, 5, 5, 3, 3, 4, 5, 5], 'j': [1, 2, 3, 2, 0, 5, 5, 4, 4, 0, 2, 3, 3, 2, 4, 4, 0], 't': [1278, 2289, 3191, 4689, 6089, 7656, 10120, 11720, 13090, 14489, 16710, 17791, 18830, 20743, 22894, 23727, 25510], 'hit': ['0', '0', '1', '0', '1', '1', '0', '0', '0', '0', '0', '0', '1', '1', '1', '0', '1'], 'b': []}","[['white', 'unknown', 'unknown', 'unknown', 'white', 'unknown'], ['unknown', 'unknown', 'white', 'unknown', 'unknown', 'unknown'], ['unknown', 'white', 'black', 'black', 'white', 'unknown'], ['unknown', 'unknown', 'black', 'black', 'unknown', 'white'], ['black', 'black', 'white', 'unknown', 'black', 'black'], ['black', 'unknown', 'white', 'white', 'white', 'black']]",17,0,16,,2
,instructions,12,232207,0.0-4.0-4.0-1.2,6978a4c5f1475ddbda96cde5,60719f4b18e2b30c9e5a562d,6978ae40048efb86a72e15bf,19,1,TRUE,1,TRUE,Player 19,32,symmetric,"[{""""page_index"""":0,""""viewing_time"""":2227}]",2228,"","",,"","","","","",,,,,
,findSquares,13,267944,0.0-4.0-4.0-0.3,6978a4c5f1475ddbda96cde5,60719f4b18e2b30c9e5a562d,6978ae40048efb86a72e15bf,19,1,TRUE,1,TRUE,Player 19,32,symmetric,"",,"","",,non-pretend,"[['1', '1', '0', '0', '1', '1'], ['0', '0', '0', '0', '0', '0'], ['0', '0', '0', '0', '0', '0'], ['1', '0', '0', '0', '0', '1'], ['1', '1', '0', '0', '1', '1'], ['0', '0', '0', '0', '0', '0']]","[[0, 1], [0, 5], [4, 0], [4, 4]]","{'i': [4, 4, 0, 0, 0, 1, 3, 5, 5, 5, 1, 1, 2, 2, 3, 2, 1, 1, 4, 4, 2, 3, 3, 5, 5, 3, 3], 'j': [1, 5, 2, 0, 4, 5, 2, 1, 4, 5, 0, 1, 1, 3, 3, 4, 3, 2, 2, 3, 0, 0, 1, 0, 3, 4, 5], 't': [1142, 2638, 4310, 5938, 7662, 9415, 11462, 12671, 14015, 14911, 16342, 17416, 18478, 19830, 20599, 21599, 22639, 24168, 25574, 26326, 27569, 28446, 29358, 30554, 31783, 32814, 33721], 'hit': ['1', '1', '0', '1', '1', '0', '0', '0', '0', '0', '0', '0', '0', '0', '0', '0', '0', '0', '0', '0', '0', '1', '0', '0', '0', '0', '1'], 'b': []}","[['black', 'black', 'white', 'unknown', 'black', 'black'], ['white', 'white', 'white', 'white', 'unknown', 'white'], ['white', 'white', 'unknown', 'white', 'white', 'unknown'], ['black', 'white', 'white', 'white', 'white', 'black'], ['black', 'black', 'white', 'white', 'black', 'black'], ['white', 'white', 'unknown', 'white', 'white', 'white']]",27,0,5,,4
,instructions,14,269703,0.0-4.0-4.0-1.3,6978a4c5f1475ddbda96cde5,60719f4b18e2b30c9e5a562d,6978ae40048efb86a72e15bf,19,1,TRUE,1,TRUE,Player 19,32,symmetric,"[{""""page_index"""":0,""""viewing_time"""":1759}]",1759,"","",,"","","","","",,,,,
,instructions,15,272472,0.0-4.0-5.0,6978a4c5f1475ddbda96cde5,60719f4b18e2b30c9e5a562d,6978ae40048efb86a72e15bf,19,1,TRUE,1,TRUE,Player 19,32,symmetric,"[{""""page_index"""":0,""""viewing_time"""":2768}]",2768,"","",,"","","","","",,,,,
,instructions,16,292296,0.0-4.0-6.0-0.0,6978a4c5f1475ddbda96cde5,60719f4b18e2b30c9e5a562d,6978ae40048efb86a72e15bf,19,1,TRUE,1,TRUE,Player 19,32,symmetric,"[{""""page_index"""":0,""""viewing_time"""":3848},{""""page_index"""":1,""""viewing_time"""":7208},{""""page_index"""":2,""""viewing_time"""":1776},{""""page_index"""":3,""""viewing_time"""":6992}]",19824,"","",,"","","","","",,,,,
,survey-multi-choice,17,298439,0.0-4.0-6.0-1.0,6978a4c5f1475ddbda96cde5,60719f4b18e2b30c9e5a562d,6978ae40048efb86a72e15bf,19,1,TRUE,1,TRUE,Player 19,32,symmetric,"",6143,"{""""Q0"""":""""... <b>repeat</b> my clicks from the first round, in the same order""""}",[0],1,multichoice_reconstruction,"","","","",,,,,
,instructions,18,306391,0.0-4.0-7.0,6978a4c5f1475ddbda96cde5,60719f4b18e2b30c9e5a562d,6978ae40048efb86a72e15bf,19,1,TRUE,1,TRUE,Player 19,32,symmetric,"[{""""page_index"""":0,""""viewing_time"""":7950}]",7950,"","",,"","","","","",,,,,
,findSquares,19,316110,0.0-4.0-8.0,6978a4c5f1475ddbda96cde5,60719f4b18e2b30c9e5a562d,6978ae40048efb86a72e15bf,19,1,TRUE,1,TRUE,Player 19,32,symmetric,"",,"","",,memory,"[['0', '0', '0', '0', '0', '0'], ['1', '1', '0', '0', '1', '1'], ['0', '0', '0', '0', '0', '0'], ['1', '0', '0', '0', '0', '1'], ['1', '1', '0', '0', '1', '1'], ['0', '0', '0', '0', '0', '0']]","[[1, 1], [1, 5], [3, 5], [4, 0]]","{'i': [1, 1, 4, 4, 3, 4], 'j': [0, 4, 5, 4, 0, 1], 't': [1487, 2647, 4423, 5198, 6736, 7705], 'hit': ['1', '1', '1', '1', '1', '1'], 'b': []}","[['unknown', 'unknown', 'unknown', 'unknown', 'unknown', 'unknown'], ['black', 'black', 'unknown', 'unknown', 'black', 'black'], ['unknown', 'unknown', 'unknown', 'unknown', 'unknown', 'unknown'], ['black', 'unknown', 'unknown', 'unknown', 'unknown', 'black'], ['black', 'black', 'unknown', 'unknown', 'black', 'black'], ['unknown', 'unknown', 'unknown', 'unknown', 'unknown', 'unknown']]",6,0,26,,1
,survey-text,20,321119,0.0-4.0-9.0,6978a4c5f1475ddbda96cde5,60719f4b18e2b30c9e5a562d,6978ae40048efb86a72e15bf,19,1,TRUE,1,TRUE,Player 19,32,symmetric,"",4958,"{""""worker_comments"""":""""""""}","",,"","","","","",,,,,
,instructions,21,326864,0.0-4.0-10.0,6978a4c5f1475ddbda96cde5,60719f4b18e2b30c9e5a562d,6978ae40048efb86a72e15bf,19,1,TRUE,1,TRUE,Player 19,32,symmetric,"[{""""page_index"""":0,""""viewing_time"""":5743}]",5744,"","",,"","","","","",,,,,
1,fullscreen,0,3742,0.0-0.0,6978a4c5f1475ddbda96cde5,67addb1eb167836dcf30ca00,6978af33704df6fd31a483fe,20,1,TRUE,1,TRUE,Player 20,54,asymmetric,"",,"","",,"","","","","",,,,,
,instructions,1,97391,0.0-1.0,6978a4c5f1475ddbda96cde5,67addb1eb167836dcf30ca00,6978af33704df6fd31a483fe,20,1,TRUE,1,TRUE,Player 20,54,asymmetric,"[{""""page_index"""":0,""""viewing_time"""":18293},{""""page_index"""":1,""""viewing_time"""":12980},{""""page_index"""":2,""""viewing_time"""":35647},{""""page_index"""":3,""""viewing_time"""":17688},{""""page_index"""":4,""""viewing_time"""":9040}]",93648,"","",,"","","","","",,,,,
,survey-multi-choice,2,109131,0.0-2.0,6978a4c5f1475ddbda96cde5,67addb1eb167836dcf30ca00,6978af33704df6fd31a483fe,20,1,TRUE,1,TRUE,Player 20,54,asymmetric,"",11739,"{""""Q0"""":""""... find all black cards whilst revealing as <b>few white cards</b> as possible""""}",[0],1,multichoice_part1,"","","","",,,,,
,instructions,3,112504,0.0-4.0-0.0,6978a4c5f1475ddbda96cde5,67addb1eb167836dcf30ca00,6978af33704df6fd31a483fe,20,1,TRUE,1,TRUE,Player 20,54,asymmetric,"[{""""page_index"""":0,""""viewing_time"""":3371}]",3372,"","",,"","","","","",,,,,
,findSquares,4,143720,0.0-4.0-1.0,6978a4c5f1475ddbda96cde5,67addb1eb167836dcf30ca00,6978af33704df6fd31a483fe,20,1,TRUE,1,TRUE,Player 20,54,asymmetric,"",,"","",,"","[['0', '0', '1', '0'], ['1', '1', '1', '1'], ['1', '1', '1', '0'], ['0', '0', '0', '0']]","[[2, 2]]","{'i': [0, 0, 2, 3, 2, 2, 3, 1, 1, 1, 0, 0, 1], 'j': [1, 0, 0, 0, 1, 3, 2, 2, 1, 0, 2, 3, 3], 't': [2730, 5175, 7507, 9671, 11450, 13007, 14500, 16951, 21045, 22791, 24959, 27595, 29202], 'hit': ['0', '0', '1', '0', '1', '0', '0', '1', '1', '1', '1', '0', '1'], 'b': []}","[['white', 'white', 'black', 'white'], ['black', 'black', 'black', 'black'], ['black', 'black', 'black', 'white'], ['white', 'unknown', 'white', 'unknown']]",13,0,2,,
,instructions,5,147443,0.0-4.0-2.0,6978a4c5f1475ddbda96cde5,67addb1eb167836dcf30ca00,6978af33704df6fd31a483fe,20,1,TRUE,1,TRUE,Player 20,54,asymmetric,"[{""""page_index"""":0,""""viewing_time"""":3723}]",3723,"","",,"","","","","",,,,,
,instructions,6,168196,0.0-4.0-3.0,6978a4c5f1475ddbda96cde5,67addb1eb167836dcf30ca00,6978af33704df6fd31a483fe,20,1,TRUE,1,TRUE,Player 20,54,asymmetric,"[{""""page_index"""":0,""""viewing_time"""":18662},{""""page_index"""":1,""""viewing_time"""":2091}]",20753,"","",,"","","","","",,,,,
,findSquares,7,216986,0.0-4.0-4.0-0.0,6978a4c5f1475ddbda96cde5,67addb1eb167836dcf30ca00,6978af33704df6fd31a483fe,20,1,TRUE,1,TRUE,Player 20,54,asymmetric,"",,"","",,non-pretend,"[['0', '0', '0', '0', '0', '0'], ['1', '1', '0', '0', '1', '1'], ['0', '0', '0', '0', '0', '0'], ['1', '0', '0', '0', '0', '1'], ['1', '1', '0', '0', '1', '1'], ['0', '0', '0', '0', '0', '0']]","[[1, 1], [1, 5], [3, 5], [4, 0]]","{'i': [2, 1, 1, 2, 2, 0, 0, 4, 4, 3, 5, 3, 5, 1, 1, 0, 2, 3, 4, 5, 4], 'j': [5, 2, 0, 0, 1, 1, 0, 1, 2, 1, 1, 0, 0, 4, 3, 4, 4, 4, 5, 5, 4], 't': [4479, 8713, 10563, 12526, 14187, 16465, 18639, 25157, 26617, 28106, 29885, 32065, 33248, 38435, 39550, 40696, 42131, 43325, 44561, 45745, 46782], 'hit': ['0', '0', '1', '0', '0', '0', '0', '1', '0', '0', '0', '1', '0', '1', '0', '0', '0', '0', '1', '0', '1'], 'b': []}","[['white', 'white', 'unknown', 'unknown', 'white', 'unknown'], ['black', 'black', 'white', 'white', 'black', 'black'], ['white', 'white', 'unknown', 'unknown', 'white', 'white'], ['black', 'white', 'unknown', 'unknown', 'white', 'black'], ['black', 'black', 'white', 'unknown', 'black', 'black'], ['white', 'white', 'unknown', 'unknown', 'unknown', 'white']]",21,0,11,,1
,instructions,8,222261,0.0-4.0-4.0-1.0,6978a4c5f1475ddbda96cde5,67addb1eb167836dcf30ca00,6978af33704df6fd31a483fe,20,1,TRUE,1,TRUE,Player 20,54,asymmetric,"[{""""page_index"""":0,""""viewing_time"""":5276}]",5276,"","",,"","","","","",,,,,
,findSquares,9,246470,0.0-4.0-4.0-0.1,6978a4c5f1475ddbda96cde5,67addb1eb167836dcf30ca00,6978af33704df6fd31a483fe,20,1,TRUE,1,TRUE,Player 20,54,asymmetric,"",,"","",,non-pretend,"[['0', '0', '0', '0', '0', '0'], ['0', '0', '1', '1', '0', '0'], ['0', '0', '1', '0', '0', '0'], ['0', '1', '0', '0', '1', '0'], ['0', '1', '0', '0', '1', '1'], ['0', '1', '0', '0', '1', '0']]","[[1, 2], [4, 4], [5, 1]]","{'i': [4, 3, 2, 3, 3, 5, 4, 4, 3, 5, 4, 5, 3, 2, 1, 0, 2], 'j': [1, 1, 1, 0, 2, 0, 0, 5, 5, 5, 3, 4, 4, 4, 3, 3, 2], 't': [2109, 3116, 4180, 5921, 6911, 8946, 9925, 11643, 12684, 13784, 14946, 16158, 17313, 18470, 19719, 20735, 22194], 'hit': ['1', '1', '0', '0', '0', '0', '0', '1', '0', '0', '0', '1', '1', '0', '1', '0', '1'], 'b': []}","[['unknown', 'unknown', 'unknown', 'white', 'unknown', 'unknown'], ['unknown', 'unknown', 'black', 'black', 'unknown', 'unknown'], ['unknown', 'white', 'black', 'unknown', 'white', 'unknown'], ['white', 'black', 'white', 'unknown', 'black', 'white'], ['white', 'black', 'unknown', 'white', 'black', 'black'], ['white', 'black', 'unknown', 'unknown', 'black', 'white']]",17,0,16,,9
,instructions,10,249129,0.0-4.0-4.0-1.1,6978a4c5f1475ddbda96cde5,67addb1eb167836dcf30ca00,6978af33704df6fd31a483fe,20,1,TRUE,1,TRUE,Player 20,54,asymmetric,"[{""""page_index"""":0,""""viewing_time"""":2659}]",2660,"","",,"","","","","",,,,,
,findSquares,11,278919,0.0-4.0-4.0-0.2,6978a4c5f1475ddbda96cde5,67addb1eb167836dcf30ca00,6978af33704df6fd31a483fe,20,1,TRUE,1,TRUE,Player 20,54,asymmetric,"",,"","",,non-pretend,"[['1', '1', '1', '0', '0', '1'], ['0', '0', '0', '0', '0', '1'], ['0', '0', '0', '0', '0', '0'], ['0', '0', '0', '0', '1', '0'], ['1', '1', '0', '1', '1', '0'], ['0', '0', '0', '0', '0', '0']]","[[0, 1], [0, 5], [4, 0], [4, 4]]","{'i': [4, 4, 3, 1, 0, 5, 3, 4, 3, 5, 1, 1, 0, 0, 1, 1, 0, 2, 4, 3], 'j': [3, 2, 3, 5, 0, 0, 0, 1, 1, 1, 1, 0, 2, 3, 2, 4, 4, 5, 5, 4], 't': [2304, 3137, 4403, 6925, 8255, 9661, 10651, 11818, 12803, 14010, 17338, 18304, 19539, 20903, 22288, 23528, 24544, 25417, 26879, 27785], 'hit': ['1', '0', '0', '1', '1', '0', '0', '1', '0', '0', '0', '0', '1', '0', '0', '0', '0', '0', '0', '1'], 'b': []}","[['black', 'black', 'black', 'white', 'white', 'black'], ['white', 'white', 'white', 'unknown', 'white', 'black'], ['unknown', 'unknown', 'unknown', 'unknown', 'unknown', 'white'], ['white', 'white', 'unknown', 'white', 'black', 'unknown'], ['black', 'black', 'white', 'black', 'black', 'white'], ['white', 'white', 'unknown', 'unknown', 'unknown', 'unknown']]",20,0,12,,10
,instructions,12,280989,0.0-4.0-4.0-1.2,6978a4c5f1475ddbda96cde5,67addb1eb167836dcf30ca00,6978af33704df6fd31a483fe,20,1,TRUE,1,TRUE,Player 20,54,asymmetric,"[{""""page_index"""":0,""""viewing_time"""":2070}]",2070,"","",,"","","","","",,,,,
,findSquares,13,308086,0.0-4.0-4.0-0.3,6978a4c5f1475ddbda96cde5,67addb1eb167836dcf30ca00,6978af33704df6fd31a483fe,20,1,TRUE,1,TRUE,Player 20,54,asymmetric,"",,"","",,non-pretend,"[['0', '0', '0', '0', '0', '0'], ['0', '0', '0', '0', '0', '0'], ['0', '1', '1', '1', '0', '0'], ['0', '0', '1', '0', '0', '1'], ['1', '1', '0', '0', '0', '1'], ['1', '0', '0', '0', '0', '1']]","[[2, 2], [4, 1], [4, 5]]","{'i': [3, 2, 2, 5, 5, 3, 2, 3, 2, 4, 4, 5, 3, 1, 2, 1, 1, 3], 'j': [1, 1, 0, 1, 5, 5, 5, 4, 3, 2, 0, 0, 0, 1, 4, 3, 2, 2], 't': [1920, 3708, 4760, 6312, 7509, 8396, 9330, 10396, 12072, 13753, 15704, 17320, 18240, 19879, 21845, 23020, 23908, 25079], 'hit': ['0', '1', '0', '0', '1', '1', '0', '0', '1', '0', '1', '1', '0', '0', '0', '0', '0', '1'], 'b': []}","[['unknown', 'unknown', 'unknown', 'unknown', 'unknown', 'unknown'], ['unknown', 'white', 'white', 'white', 'unknown', 'unknown'], ['white', 'black', 'black', 'black', 'white', 'white'], ['white', 'white', 'black', 'unknown', 'white', 'black'], ['black', 'black', 'white', 'unknown', 'unknown', 'black'], ['black', 'white', 'unknown', 'unknown', 'unknown', 'black']]",18,0,15,,8
,instructions,14,314187,0.0-4.0-4.0-1.3,6978a4c5f1475ddbda96cde5,67addb1eb167836dcf30ca00,6978af33704df6fd31a483fe,20,1,TRUE,1,TRUE,Player 20,54,asymmetric,"[{""""page_index"""":0,""""viewing_time"""":6101}]",6102,"","",,"","","","","",,,,,
,instructions,15,317910,0.0-4.0-5.0,6978a4c5f1475ddbda96cde5,67addb1eb167836dcf30ca00,6978af33704df6fd31a483fe,20,1,TRUE,1,TRUE,Player 20,54,asymmetric,"[{""""page_index"""":0,""""viewing_time"""":3723}]",3723,"","",,"","","","","",,,,,
,instructions,16,348546,0.0-4.0-6.0-0.0,6978a4c5f1475ddbda96cde5,67addb1eb167836dcf30ca00,6978af33704df6fd31a483fe,20,1,TRUE,1,TRUE,Player 20,54,asymmetric,"[{""""page_index"""":0,""""viewing_time"""":4913},{""""page_index"""":1,""""viewing_time"""":11700},{""""page_index"""":2,""""viewing_time"""":2053},{""""page_index"""":3,""""viewing_time"""":11969}]",30635,"","",,"","","","","",,,,,
,survey-multi-choice,17,354500,0.0-4.0-6.0-1.0,6978a4c5f1475ddbda96cde5,67addb1eb167836dcf30ca00,6978af33704df6fd31a483fe,20,1,TRUE,1,TRUE,Player 20,54,asymmetric,"",5953,"{""""Q0"""":""""... <b>repeat</b> my clicks from the first round, in the same order""""}",[0],1,multichoice_reconstruction,"","","","",,,,,
,instructions,18,363035,0.0-4.0-7.0,6978a4c5f1475ddbda96cde5,67addb1eb167836dcf30ca00,6978af33704df6fd31a483fe,20,1,TRUE,1,TRUE,Player 20,54,asymmetric,"[{""""page_index"""":0,""""viewing_time"""":8535}]",8536,"","",,"","","","","",,,,,
,findSquares,19,391802,0.0-4.0-8.0,6978a4c5f1475ddbda96cde5,67addb1eb167836dcf30ca00,6978af33704df6fd31a483fe,20,1,TRUE,1,TRUE,Player 20,54,asymmetric,"",,"","",,memory,"[['0', '0', '0', '0', '0', '0'], ['1', '1', '0', '0', '1', '1'], ['0', '0', '0', '0', '0', '0'], ['1', '0', '0', '0', '0', '1'], ['1', '1', '0', '0', '1', '1'], ['0', '0', '0', '0', '0', '0']]","[[1, 1], [1, 5], [3, 5], [4, 0]]","{'i': [1, 1, 0, 2, 2, 1, 0, 4, 4, 3, 5, 3, 3, 4], 'j': [0, 2, 1, 1, 5, 4, 5, 5, 4, 4, 5, 0, 1, 1], 't': [2027, 3874, 8157, 10150, 12738, 14306, 15935, 17697, 18883, 20048, 21018, 22615, 25207, 26752], 'hit': ['1', '0', '0', '0', '0', '1', '0', '1', '1', '0', '0', '1', '0', '1'], 'b': []}","[['unknown', 'white', 'unknown', 'unknown', 'unknown', 'white'], ['black', 'black', 'white', 'unknown', 'black', 'black'], ['unknown', 'white', 'unknown', 'unknown', 'unknown', 'white'], ['black', 'white', 'unknown', 'unknown', 'white', 'black'], ['black', 'black', 'unknown', 'unknown', 'black', 'black'], ['unknown', 'unknown', 'unknown', 'unknown', 'unknown', 'white']]",14,0,18,,1
,survey-text,20,423553,0.0-4.0-9.0,6978a4c5f1475ddbda96cde5,67addb1eb167836dcf30ca00,6978af33704df6fd31a483fe,20,1,TRUE,1,TRUE,Player 20,54,asymmetric,"",31740,"{""""worker_comments"""":""""""""}","",,"","","","","",,,,,
,instructions,21,429108,0.0-4.0-10.0,6978a4c5f1475ddbda96cde5,67addb1eb167836dcf30ca00,6978af33704df6fd31a483fe,20,1,TRUE,1,TRUE,Player 20,54,asymmetric,"[{""""page_index"""":0,""""viewing_time"""":5555}]",5555,"","",,"","","","","",,,,,
1,fullscreen,0,7212,0.0-0.0,6978a4c5f1475ddbda96cde5,588a59813e1f290001aa78c1,6978acd04c60a5517f732d9f,21,1,TRUE,1,TRUE,Player 21,72,symmetric,"",,"","",,"","","","","",,,,,
,instructions,1,78656,0.0-1.0,6978a4c5f1475ddbda96cde5,588a59813e1f290001aa78c1,6978acd04c60a5517f732d9f,21,1,TRUE,1,TRUE,Player 21,72,symmetric,"[{""""page_index"""":0,""""viewing_time"""":22563.30000001192},{""""page_index"""":1,""""viewing_time"""":7155.5999999940395},{""""page_index"""":2,""""viewing_time"""":9333.299999982119},{""""page_index"""":3,""""viewing_time"""":22163.20000001788},{""""page_index"""":4,""""viewing_time"""":10227.09999999404}]",71443,"","",,"","","","","",,,,,
,survey-multi-choice,2,92915,0.0-2.0,6978a4c5f1475ddbda96cde5,588a59813e1f290001aa78c1,6978acd04c60a5517f732d9f,21,1,TRUE,1,TRUE,Player 21,72,symmetric,"",14256.8000000119,"{""""Q0"""":""""... find all black cards whilst revealing as <b>few white cards</b> as possible""""}",[0],1,multichoice_part1,"","","","",,,,,
,instructions,3,95449,0.0-4.0-0.0,6978a4c5f1475ddbda96cde5,588a59813e1f290001aa78c1,6978acd04c60a5517f732d9f,21,1,TRUE,1,TRUE,Player 21,72,symmetric,"[{""""page_index"""":0,""""viewing_time"""":2533.699999988079}]",2534,"","",,"","","","","",,,,,
,findSquares,4,116002,0.0-4.0-1.0,6978a4c5f1475ddbda96cde5,588a59813e1f290001aa78c1,6978acd04c60a5517f732d9f,21,1,TRUE,1,TRUE,Player 21,72,symmetric,"",,"","",,"","[['0', '0', '0', '0'], ['1', '1', '1', '1'], ['1', '1', '1', '1'], ['0', '0', '0', '0']]","[[2, 2]]","{'i': [0, 1, 1, 2, 0, 0, 2, 1, 1, 2], 'j': [0, 1, 2, 1, 1, 2, 3, 3, 0, 0], 't': [1717.300000011921, 4564.700000017881, 5889.100000023842, 7038.9000000059605, 11921.600000023842, 13154.700000017881, 14626.90000000596, 16140, 17385.600000023842, 18541.90000000596], 'hit': ['0', '1', '1', '1', '0', '0', '1', '1', '1', '1'], 'b': []}","[['white', 'white', 'white', 'unknown'], ['black', 'black', 'black', 'black'], ['black', 'black', 'black', 'black'], ['unknown', 'unknown', 'unknown', 'unknown']]",10,0,5,,
,instructions,5,124761,0.0-4.0-2.0,6978a4c5f1475ddbda96cde5,588a59813e1f290001aa78c1,6978acd04c60a5517f732d9f,21,1,TRUE,1,TRUE,Player 21,72,symmetric,"[{""""page_index"""":0,""""viewing_time"""":8757.5}]",8757.79999998212,"","",,"","","","","",,,,,
,instructions,6,133184,0.0-4.0-3.0,6978a4c5f1475ddbda96cde5,588a59813e1f290001aa78c1,6978acd04c60a5517f732d9f,21,1,TRUE,1,TRUE,Player 21,72,symmetric,"[{""""page_index"""":0,""""viewing_time"""":6548.0999999940395},{""""page_index"""":1,""""viewing_time"""":1873.9000000059605}]",8422.39999997616,"","",,"","","","","",,,,,
,findSquares,7,161316,0.0-4.0-4.0-0.0,6978a4c5f1475ddbda96cde5,588a59813e1f290001aa78c1,6978acd04c60a5517f732d9f,21,1,TRUE,1,TRUE,Player 21,72,symmetric,"",,"","",,non-pretend,"[['0', '0', '0', '0', '0', '0'], ['1', '1', '0', '0', '1', '1'], ['0', '0', '0', '0', '0', '0'], ['1', '0', '0', '0', '0', '1'], ['1', '1', '0', '0', '1', '1'], ['0', '0', '0', '0', '0', '0']]","[[1, 1], [1, 5], [3, 5], [4, 0]]","{'i': [1, 2, 0, 1, 2, 3, 4, 3, 5, 5, 2, 3, 4, 0, 1, 1, 5, 4], 'j': [0, 1, 1, 2, 0, 0, 1, 1, 1, 0, 5, 4, 5, 5, 4, 3, 5, 4], 't': [1617.0999999940395, 2693.0999999940395, 4029.399999976158, 5243.899999976158, 6644.5, 7713.0999999940395, 8801.399999976158, 9996.59999999404, 11204.5, 12287.199999988079, 14461.59999999404, 16173.799999982119, 18418.69999998808, 19665.79999998212, 20817.59999999404, 22341, 24173.19999998808, 26115.59999999404], 'hit': ['1', '0', '0', '0', '0', '1', '1', '0', '0', '0', '0', '0', '1', '0', '1', '0', '0', '1'], 'b': []}","[['unknown', 'white', 'unknown', 'unknown', 'unknown', 'white'], ['black', 'black', 'white', 'white', 'black', 'black'], ['white', 'white', 'unknown', 'unknown', 'unknown', 'white'], ['black', 'white', 'unknown', 'unknown', 'white', 'black'], ['black', 'black', 'unknown', 'unknown', 'black', 'black'], ['white', 'white', 'unknown', 'unknown', 'unknown', 'white']]",18,0,14,,1
,instructions,8,164019,0.0-4.0-4.0-1.0,6978a4c5f1475ddbda96cde5,588a59813e1f290001aa78c1,6978acd04c60a5517f732d9f,21,1,TRUE,1,TRUE,Player 21,72,symmetric,"[{""""page_index"""":0,""""viewing_time"""":2702.100000023842}]",2702.40000000596,"","",,"","","","","",,,,,
,findSquares,9,194791,0.0-4.0-4.0-0.1,6978a4c5f1475ddbda96cde5,588a59813e1f290001aa78c1,6978acd04c60a5517f732d9f,21,1,TRUE,1,TRUE,Player 21,72,symmetric,"",,"","",,non-pretend,"[['0', '0', '0', '0', '0', '0'], ['0', '0', '0', '0', '0', '0'], ['0', '0', '1', '1', '0', '0'], ['0', '0', '1', '1', '0', '0'], ['1', '1', '0', '0', '1', '1'], ['1', '0', '0', '0', '0', '1']]","[[2, 2], [4, 1], [4, 5]]","{'i': [4, 4, 1, 2, 2, 5, 5, 3, 5, 1, 0, 0, 1, 4, 5, 3, 3, 3], 'j': [0, 4, 2, 4, 3, 1, 0, 0, 5, 3, 3, 0, 0, 2, 4, 4, 3, 2], 't': [2609.4000000059605, 4086.9000000059605, 6340.200000017881, 8041.5, 9022.5, 11510.40000000596, 12588, 13835.5, 15202.700000017881, 16681.09999999404, 17692.80000001192, 18984, 20151.20000001788, 21946.80000001192, 23408.09999999404, 26113.20000001788, 27500.40000000596, 28756.59999999404], 'hit': ['1', '1', '0', '0', '1', '0', '1', '0', '1', '0', '0', '0', '0', '0', '0', '0', '1', '1'], 'b': []}","[['white', 'unknown', 'unknown', 'white', 'unknown', 'unknown'], ['white', 'unknown', 'white', 'white', 'unknown', 'unknown'], ['unknown', 'unknown', 'black', 'black', 'white', 'unknown'], ['white', 'unknown', 'black', 'black', 'white', 'unknown'], ['black', 'black', 'white', 'unknown', 'black', 'black'], ['black', 'white', 'unknown', 'unknown', 'white', 'black']]",18,0,15,,2
,instructions,10,196627,0.0-4.0-4.0-1.1,6978a4c5f1475ddbda96cde5,588a59813e1f290001aa78c1,6978acd04c60a5517f732d9f,21,1,TRUE,1,TRUE,Player 21,72,symmetric,"[{""""page_index"""":0,""""viewing_time"""":1834.7999999821186}]",1835.09999999404,"","",,"","","","","",,,,,
,findSquares,11,217598,0.0-4.0-4.0-0.2,6978a4c5f1475ddbda96cde5,588a59813e1f290001aa78c1,6978acd04c60a5517f732d9f,21,1,TRUE,1,TRUE,Player 21,72,symmetric,"",,"","",,non-pretend,"[['1', '1', '0', '0', '1', '1'], ['0', '0', '0', '0', '0', '0'], ['0', '0', '0', '0', '0', '0'], ['1', '0', '0', '0', '0', '1'], ['1', '1', '0', '0', '1', '1'], ['0', '0', '0', '0', '0', '0']]","[[0, 1], [0, 5], [4, 0], [4, 4]]","{'i': [0, 0, 4, 4, 2, 3, 1, 0, 3, 3], 'j': [4, 0, 1, 5, 3, 2, 2, 3, 5, 0], 't': [2934.2000000178814, 4291.100000023842, 6046.300000011921, 7325.4000000059605, 10846.100000023842, 12979.40000000596, 14272.300000011921, 15831.40000000596, 17527.80000001192, 18956], 'hit': ['1', '1', '1', '1', '0', '0', '0', '0', '1', '1'], 'b': []}","[['black', 'black', 'unknown', 'white', 'black', 'black'], ['unknown', 'unknown', 'white', 'unknown', 'unknown', 'unknown'], ['unknown', 'unknown', 'unknown', 'white', 'unknown', 'unknown'], ['black', 'unknown', 'white', 'unknown', 'unknown', 'black'], ['black', 'black', 'unknown', 'unknown', 'black', 'black'], ['unknown', 'unknown', 'unknown', 'unknown', 'unknown', 'unknown']]",10,0,22,,4
,instructions,12,219403,0.0-4.0-4.0-1.2,6978a4c5f1475ddbda96cde5,588a59813e1f290001aa78c1,6978acd04c60a5517f732d9f,21,1,TRUE,1,TRUE,Player 21,72,symmetric,"[{""""page_index"""":0,""""viewing_time"""":1803.9000000059605}]",1804.19999998808,"","",,"","","","","",,,,,
,findSquares,13,240488,0.0-4.0-4.0-0.3,6978a4c5f1475ddbda96cde5,588a59813e1f290001aa78c1,6978acd04c60a5517f732d9f,21,1,TRUE,1,TRUE,Player 21,72,symmetric,"",,"","",,non-pretend,"[['0', '0', '0', '0', '0', '0'], ['0', '0', '1', '1', '0', '0'], ['0', '0', '1', '1', '0', '0'], ['0', '1', '0', '0', '1', '0'], ['0', '1', '0', '0', '1', '0'], ['0', '1', '0', '0', '1', '0']]","[[1, 2], [4, 4], [5, 1]]","{'i': [4, 5, 1, 0, 2, 2, 4, 5, 5, 4, 3, 3], 'j': [1, 4, 3, 3, 3, 2, 5, 5, 3, 3, 4, 1], 't': [2658.5, 4279.800000011921, 5464.4000000059605, 7789.9000000059605, 8896.5, 10142.90000000596, 12500.5, 13560.40000000596, 15297.200000017881, 16172.90000000596, 17701.30000001192, 19068.5], 'hit': ['1', '1', '1', '0', '1', '1', '0', '0', '0', '0', '1', '1'], 'b': []}","[['unknown', 'unknown', 'unknown', 'white', 'unknown', 'unknown'], ['unknown', 'unknown', 'black', 'black', 'unknown', 'unknown'], ['unknown', 'unknown', 'black', 'black', 'unknown', 'unknown'], ['unknown', 'black', 'unknown', 'unknown', 'black', 'unknown'], ['unknown', 'black', 'unknown', 'white', 'black', 'white'], ['unknown', 'black', 'unknown', 'white', 'black', 'white']]",12,0,21,,3
,instructions,14,243505,0.0-4.0-4.0-1.3,6978a4c5f1475ddbda96cde5,588a59813e1f290001aa78c1,6978acd04c60a5517f732d9f,21,1,TRUE,1,TRUE,Player 21,72,symmetric,"[{""""page_index"""":0,""""viewing_time"""":3016.5}]",3016.80000001192,"","",,"","","","","",,,,,
,instructions,15,246092,0.0-4.0-5.0,6978a4c5f1475ddbda96cde5,588a59813e1f290001aa78c1,6978acd04c60a5517f732d9f,21,1,TRUE,1,TRUE,Player 21,72,symmetric,"[{""""page_index"""":0,""""viewing_time"""":2586.600000023842}]",2586.90000000596,"","",,"","","","","",,,,,
,instructions,16,272101,0.0-4.0-6.0-0.0,6978a4c5f1475ddbda96cde5,588a59813e1f290001aa78c1,6978acd04c60a5517f732d9f,21,1,TRUE,1,TRUE,Player 21,72,symmetric,"[{""""page_index"""":0,""""viewing_time"""":4148.5},{""""page_index"""":1,""""viewing_time"""":11972.40000000596},{""""page_index"""":2,""""viewing_time"""":3265.800000011921},{""""page_index"""":3,""""viewing_time"""":6620.5}]",26007.6000000238,"","",,"","","","","",,,,,
,survey-multi-choice,17,277045,0.0-4.0-6.0-1.0,6978a4c5f1475ddbda96cde5,588a59813e1f290001aa78c1,6978acd04c60a5517f732d9f,21,1,TRUE,1,TRUE,Player 21,72,symmetric,"",4942.5,"{""""Q0"""":""""... <b>repeat</b> my clicks from the first round, in the same order""""}",[0],1,multichoice_reconstruction,"","","","",,,,,
,instructions,18,281711,0.0-4.0-7.0,6978a4c5f1475ddbda96cde5,588a59813e1f290001aa78c1,6978acd04c60a5517f732d9f,21,1,TRUE,1,TRUE,Player 21,72,symmetric,"[{""""page_index"""":0,""""viewing_time"""":4665.0999999940395}]",4665.29999998212,"","",,"","","","","",,,,,
,findSquares,19,299807,0.0-4.0-8.0,6978a4c5f1475ddbda96cde5,588a59813e1f290001aa78c1,6978acd04c60a5517f732d9f,21,1,TRUE,1,TRUE,Player 21,72,symmetric,"",,"","",,memory,"[['0', '0', '0', '0', '0', '0'], ['1', '1', '0', '0', '1', '1'], ['0', '0', '0', '0', '0', '0'], ['1', '0', '0', '0', '0', '1'], ['1', '1', '0', '0', '1', '1'], ['0', '0', '0', '0', '0', '0']]","[[1, 1], [1, 5], [3, 5], [4, 0]]","{'i': [4, 3, 3, 1, 0, 4, 4, 1], 'j': [1, 1, 0, 0, 1, 5, 4, 4], 't': [1715.5999999940395, 5647, 6784.5, 10748.199999988079, 11915.09999999404, 13699.299999982119, 14822.799999982119, 16082.09999999404], 'hit': ['1', '0', '1', '1', '0', '1', '1', '1'], 'b': []}","[['unknown', 'white', 'unknown', 'unknown', 'unknown', 'unknown'], ['black', 'black', 'unknown', 'unknown', 'black', 'black'], ['unknown', 'unknown', 'unknown', 'unknown', 'unknown', 'unknown'], ['black', 'white', 'unknown', 'unknown', 'unknown', 'black'], ['black', 'black', 'unknown', 'unknown', 'black', 'black'], ['unknown', 'unknown', 'unknown', 'unknown', 'unknown', 'unknown']]",8,0,24,,1
,survey-text,20,303479,0.0-4.0-9.0,6978a4c5f1475ddbda96cde5,588a59813e1f290001aa78c1,6978acd04c60a5517f732d9f,21,1,TRUE,1,TRUE,Player 21,72,symmetric,"",3668.80000001192,"{""""worker_comments"""":""""""""}","",,"","","","","",,,,,
,instructions,21,307598,0.0-4.0-10.0,6978a4c5f1475ddbda96cde5,588a59813e1f290001aa78c1,6978acd04c60a5517f732d9f,21,1,TRUE,1,TRUE,Player 21,72,symmetric,"[{""""page_index"""":0,""""viewing_time"""":4117.700000017881}]",4118,"","",,"","","","","",,,,,
1,fullscreen,0,6337,0.0-0.0,6978a4c5f1475ddbda96cde5,5e204990b062543612e9a254,6978b0b69c730744d0d73871,22,1,TRUE,1,TRUE,Player 22,61,symmetric,"",,"","",,"","","","","",,,,,
,instructions,1,60267,0.0-1.0,6978a4c5f1475ddbda96cde5,5e204990b062543612e9a254,6978b0b69c730744d0d73871,22,1,TRUE,1,TRUE,Player 22,61,symmetric,"[{""""page_index"""":0,""""viewing_time"""":17038.19999998808},{""""page_index"""":1,""""viewing_time"""":17345.30000001192},{""""page_index"""":2,""""viewing_time"""":5159.199999988079},{""""page_index"""":3,""""viewing_time"""":2600},{""""page_index"""":4,""""viewing_time"""":11784.300000011921}]",53927.599999994,"","",,"","","","","",,,,,
,survey-multi-choice,2,63778,0.0-2.0,6978a4c5f1475ddbda96cde5,5e204990b062543612e9a254,6978b0b69c730744d0d73871,22,1,TRUE,1,TRUE,Player 22,61,symmetric,"",3509.09999999404,"{""""Q0"""":""""... find all black cards whilst revealing as <b>few white cards</b> as possible""""}",[0],1,multichoice_part1,"","","","",,,,,
,instructions,3,65059,0.0-4.0-0.0,6978a4c5f1475ddbda96cde5,5e204990b062543612e9a254,6978b0b69c730744d0d73871,22,1,TRUE,1,TRUE,Player 22,61,symmetric,"[{""""page_index"""":0,""""viewing_time"""":1279.800000011921}]",1280.09999999404,"","",,"","","","","",,,,,
,findSquares,4,75711,0.0-4.0-1.0,6978a4c5f1475ddbda96cde5,5e204990b062543612e9a254,6978b0b69c730744d0d73871,22,1,TRUE,1,TRUE,Player 22,61,symmetric,"",,"","",,"","[['0', '0', '0', '0'], ['1', '1', '1', '1'], ['1', '1', '1', '1'], ['0', '0', '0', '0']]","[[2, 2]]","{'i': [2, 1, 3, 1, 1, 2, 1, 2], 'j': [1, 1, 1, 2, 3, 3, 0, 0], 't': [3128.0999999940395, 4552.5, 5344.300000011921, 6249.0999999940395, 7017.0999999940395, 7576.4000000059605, 8176.4000000059605, 8632.90000000596], 'hit': ['1', '1', '0', '1', '1', '1', '1', '1'], 'b': []}","[['unknown', 'unknown', 'unknown', 'unknown'], ['black', 'black', 'black', 'black'], ['black', 'black', 'black', 'black'], ['unknown', 'white', 'unknown', 'unknown']]",8,0,7,,
,instructions,5,78106,0.0-4.0-2.0,6978a4c5f1475ddbda96cde5,5e204990b062543612e9a254,6978b0b69c730744d0d73871,22,1,TRUE,1,TRUE,Player 22,61,symmetric,"[{""""page_index"""":0,""""viewing_time"""":2393.5}]",2393.79999998212,"","",,"","","","","",,,,,
,instructions,6,93243,0.0-4.0-3.0,6978a4c5f1475ddbda96cde5,5e204990b062543612e9a254,6978b0b69c730744d0d73871,22,1,TRUE,1,TRUE,Player 22,61,symmetric,"[{""""page_index"""":0,""""viewing_time"""":13127.5},{""""page_index"""":1,""""viewing_time"""":2008.1000000238419}]",15135.900000006,"","",,"","","","","",,,,,
,findSquares,7,115180,0.0-4.0-4.0-0.0,6978a4c5f1475ddbda96cde5,5e204990b062543612e9a254,6978b0b69c730744d0d73871,22,1,TRUE,1,TRUE,Player 22,61,symmetric,"",,"","",,non-pretend,"[['0', '0', '0', '0', '0', '0'], ['1', '1', '0', '0', '1', '1'], ['0', '0', '0', '0', '0', '0'], ['1', '0', '0', '0', '0', '1'], ['1', '1', '0', '0', '1', '1'], ['0', '0', '0', '0', '0', '0']]","[[1, 1], [1, 5], [3, 5], [4, 0]]","{'i': [2, 1, 1, 2, 4, 5, 5, 4, 4, 3, 3, 1, 2, 2, 0, 1, 3, 4], 'j': [5, 4, 3, 4, 5, 5, 0, 1, 2, 0, 1, 2, 1, 0, 1, 0, 4, 4], 't': [1820.4000000059605, 3052.800000011921, 3628.9000000059605, 5724.699999988079, 7147.9000000059605, 8046.5, 9021, 9573.199999988079, 10348.800000011921, 11094.09999999404, 11645.699999988079, 12668.59999999404, 13325.699999988079, 14021.199999988079, 14821.300000011921, 15644.40000000596, 19270, 19919], 'hit': ['0', '1', '0', '0', '1', '0', '0', '1', '0', '1', '0', '0', '0', '0', '0', '1', '0', '1'], 'b': []}","[['unknown', 'white', 'unknown', 'unknown', 'unknown', 'unknown'], ['black', 'black', 'white', 'white', 'black', 'black'], ['white', 'white', 'unknown', 'unknown', 'white', 'white'], ['black', 'white', 'unknown', 'unknown', 'white', 'black'], ['black', 'black', 'white', 'unknown', 'black', 'black'], ['white', 'unknown', 'unknown', 'unknown', 'unknown', 'white']]",18,0,14,,1
,instructions,8,117035,0.0-4.0-4.0-1.0,6978a4c5f1475ddbda96cde5,5e204990b062543612e9a254,6978b0b69c730744d0d73871,22,1,TRUE,1,TRUE,Player 22,61,symmetric,"[{""""page_index"""":0,""""viewing_time"""":1853.2999999821186}]",1853.69999998808,"","",,"","","","","",,,,,
,findSquares,9,139059,0.0-4.0-4.0-0.1,6978a4c5f1475ddbda96cde5,5e204990b062543612e9a254,6978b0b69c730744d0d73871,22,1,TRUE,1,TRUE,Player 22,61,symmetric,"",,"","",,non-pretend,"[['0', '0', '0', '0', '0', '0'], ['0', '0', '0', '0', '0', '0'], ['0', '0', '1', '1', '0', '0'], ['0', '0', '1', '1', '0', '0'], ['1', '1', '0', '0', '1', '1'], ['1', '0', '0', '0', '0', '1']]","[[2, 2], [4, 1], [4, 5]]","{'i': [4, 3, 4, 2, 2, 3, 4, 4, 3, 3, 3, 5, 5, 5, 5], 'j': [2, 1, 0, 1, 3, 3, 4, 3, 4, 2, 5, 5, 4, 1, 0], 't': [2901.9000000059605, 4253.699999988079, 6269.5, 7343, 8269.59999999404, 9799.09999999404, 11566.800000011921, 12725.699999988079, 13509.800000011921, 15581.300000011921, 16910.69999998808, 17605.59999999404, 18397.30000001192, 19470, 20022.09999999404], 'hit': ['0', '0', '1', '0', '1', '1', '1', '0', '0', '1', '0', '1', '0', '0', '1'], 'b': []}","[['unknown', 'unknown', 'unknown', 'unknown', 'unknown', 'unknown'], ['unknown', 'unknown', 'unknown', 'unknown', 'unknown', 'unknown'], ['unknown', 'white', 'black', 'black', 'unknown', 'unknown'], ['unknown', 'white', 'black', 'black', 'white', 'white'], ['black', 'black', 'white', 'white', 'black', 'black'], ['black', 'white', 'unknown', 'unknown', 'white', 'black']]",15,0,18,,2
,instructions,10,140091,0.0-4.0-4.0-1.1,6978a4c5f1475ddbda96cde5,5e204990b062543612e9a254,6978b0b69c730744d0d73871,22,1,TRUE,1,TRUE,Player 22,61,symmetric,"[{""""page_index"""":0,""""viewing_time"""":1030.7000000178814}]",1031.20000001788,"","",,"","","","","",,,,,
,findSquares,11,158626,0.0-4.0-4.0-0.2,6978a4c5f1475ddbda96cde5,5e204990b062543612e9a254,6978b0b69c730744d0d73871,22,1,TRUE,1,TRUE,Player 22,61,symmetric,"",,"","",,non-pretend,"[['0', '0', '0', '0', '0', '0'], ['0', '0', '1', '1', '0', '0'], ['0', '0', '1', '1', '0', '0'], ['0', '1', '0', '0', '1', '0'], ['0', '1', '0', '0', '1', '0'], ['0', '1', '0', '0', '1', '0']]","[[1, 2], [4, 4], [5, 1]]","{'i': [0, 1, 1, 4, 5, 5, 3, 5, 4, 3, 2, 1, 2, 2, 2], 'j': [2, 3, 4, 5, 5, 4, 4, 2, 1, 1, 1, 1, 4, 3, 2], 't': [3038.4000000059605, 3830, 5429.9000000059605, 6373.4000000059605, 7021.299999982119, 7477.799999982119, 8420.5, 9414, 10414.59999999404, 11229.40000000596, 12741, 13854.59999999404, 15246, 15965.40000000596, 16525.69999998808], 'hit': ['0', '1', '0', '0', '0', '1', '1', '0', '1', '1', '0', '0', '0', '1', '1'], 'b': []}","[['unknown', 'unknown', 'white', 'unknown', 'unknown', 'unknown'], ['unknown', 'white', 'black', 'black', 'white', 'unknown'], ['unknown', 'white', 'black', 'black', 'white', 'unknown'], ['unknown', 'black', 'unknown', 'unknown', 'black', 'unknown'], ['unknown', 'black', 'unknown', 'unknown', 'black', 'white'], ['unknown', 'black', 'white', 'unknown', 'black', 'white']]",15,0,18,,3
,instructions,12,160060,0.0-4.0-4.0-1.2,6978a4c5f1475ddbda96cde5,5e204990b062543612e9a254,6978b0b69c730744d0d73871,22,1,TRUE,1,TRUE,Player 22,61,symmetric,"[{""""page_index"""":0,""""viewing_time"""":1432.2000000178814}]",1432.70000001788,"","",,"","","","","",,,,,
,findSquares,13,183674,0.0-4.0-4.0-0.3,6978a4c5f1475ddbda96cde5,5e204990b062543612e9a254,6978b0b69c730744d0d73871,22,1,TRUE,1,TRUE,Player 22,61,symmetric,"",,"","",,non-pretend,"[['1', '1', '0', '0', '1', '1'], ['0', '0', '0', '0', '0', '0'], ['0', '0', '0', '0', '0', '0'], ['1', '0', '0', '0', '0', '1'], ['1', '1', '0', '0', '1', '1'], ['0', '0', '0', '0', '0', '0']]","[[0, 1], [0, 5], [4, 0], [4, 4]]","{'i': [3, 4, 4, 4, 3, 1, 0, 0, 1, 0, 1, 1, 4, 3, 3, 2, 5, 5, 2, 2, 0], 'j': [1, 1, 3, 2, 0, 1, 4, 2, 2, 3, 5, 4, 5, 5, 4, 0, 5, 4, 5, 4, 0], 't': [1987.4000000059605, 2540, 3318.4000000059605, 3979.199999988079, 5003.4000000059605, 6203.800000011921, 7067.699999988079, 8148.5, 9235.90000000596, 9883.800000011921, 10707.800000011921, 11276.300000011921, 12054.59999999404, 12916, 13507.300000011921, 17227.19999998808, 18659.90000000596, 19300.30000001192, 20036.19999998808, 20621, 21604.59999999404], 'hit': ['0', '1', '0', '0', '1', '0', '1', '0', '0', '0', '0', '0', '1', '1', '0', '0', '0', '0', '0', '0', '1'], 'b': []}","[['black', 'black', 'white', 'white', 'black', 'black'], ['unknown', 'white', 'white', 'unknown', 'white', 'white'], ['white', 'unknown', 'unknown', 'unknown', 'white', 'white'], ['black', 'white', 'unknown', 'unknown', 'white', 'black'], ['black', 'black', 'white', 'white', 'black', 'black'], ['unknown', 'unknown', 'unknown', 'unknown', 'white', 'white']]",21,0,11,,4
,instructions,14,184707,0.0-4.0-4.0-1.3,6978a4c5f1475ddbda96cde5,5e204990b062543612e9a254,6978b0b69c730744d0d73871,22,1,TRUE,1,TRUE,Player 22,61,symmetric,"[{""""page_index"""":0,""""viewing_time"""":1032}]",1032.59999999404,"","",,"","","","","",,,,,
,instructions,15,186242,0.0-4.0-5.0,6978a4c5f1475ddbda96cde5,5e204990b062543612e9a254,6978b0b69c730744d0d73871,22,1,TRUE,1,TRUE,Player 22,61,symmetric,"[{""""page_index"""":0,""""viewing_time"""":1534.800000011921}]",1535,"","",,"","","","","",,,,,
,instructions,16,201522,0.0-4.0-6.0-0.0,6978a4c5f1475ddbda96cde5,5e204990b062543612e9a254,6978b0b69c730744d0d73871,22,1,TRUE,1,TRUE,Player 22,61,symmetric,"[{""""page_index"""":0,""""viewing_time"""":2528.4000000059605},{""""page_index"""":1,""""viewing_time"""":5438.899999976158},{""""page_index"""":2,""""viewing_time"""":968.1000000238419},{""""page_index"""":3,""""viewing_time"""":6343.5999999940395}]",15279.400000006,"","",,"","","","","",,,,,
,survey-multi-choice,17,204258,0.0-4.0-6.0-1.0,6978a4c5f1475ddbda96cde5,5e204990b062543612e9a254,6978b0b69c730744d0d73871,22,1,TRUE,1,TRUE,Player 22,61,symmetric,"",2734.09999999404,"{""""Q0"""":""""... <b>repeat</b> my clicks from the first round, in the same order""""}",[0],1,multichoice_reconstruction,"","","","",,,,,
,instructions,18,208235,0.0-4.0-7.0,6978a4c5f1475ddbda96cde5,5e204990b062543612e9a254,6978b0b69c730744d0d73871,22,1,TRUE,1,TRUE,Player 22,61,symmetric,"[{""""page_index"""":0,""""viewing_time"""":3975.5}]",3975.90000000596,"","",,"","","","","",,,,,
,findSquares,19,221524,0.0-4.0-8.0,6978a4c5f1475ddbda96cde5,5e204990b062543612e9a254,6978b0b69c730744d0d73871,22,1,TRUE,1,TRUE,Player 22,61,symmetric,"",,"","",,memory,"[['0', '0', '0', '0', '0', '0'], ['1', '1', '0', '0', '1', '1'], ['0', '0', '0', '0', '0', '0'], ['1', '0', '0', '0', '0', '1'], ['1', '1', '0', '0', '1', '1'], ['0', '0', '0', '0', '0', '0']]","[[1, 1], [1, 5], [3, 5], [4, 0]]","{'i': [3, 4, 4, 4, 4, 4, 3, 0, 1, 2, 1, 1, 1, 3, 3], 'j': [4, 5, 4, 1, 2, 3, 3, 1, 0, 1, 2, 4, 3, 1, 0], 't': [1099.0999999940395, 2075.5, 2771.4000000059605, 3852.699999988079, 4310.699999988079, 4787.299999982119, 5219.0999999940395, 5900.199999988079, 6962.9000000059605, 7339.5999999940395, 7777.5999999940395, 8315.40000000596, 8899.299999982119, 10372.90000000596, 11275], 'hit': ['0', '1', '1', '1', '0', '0', '0', '0', '1', '0', '0', '1', '0', '0', '1'], 'b': []}","[['unknown', 'white', 'unknown', 'unknown', 'unknown', 'unknown'], ['black', 'black', 'white', 'white', 'black', 'black'], ['unknown', 'white', 'unknown', 'unknown', 'unknown', 'unknown'], ['black', 'white', 'unknown', 'white', 'white', 'black'], ['black', 'black', 'white', 'white', 'black', 'black'], ['unknown', 'unknown', 'unknown', 'unknown', 'unknown', 'unknown']]",15,0,17,,1
,survey-text,20,234299,0.0-4.0-9.0,6978a4c5f1475ddbda96cde5,5e204990b062543612e9a254,6978b0b69c730744d0d73871,22,1,TRUE,1,TRUE,Player 22,61,symmetric,"",12755.599999994,"{""""worker_comments"""":""""""""}","",,"","","","","",,,,,
,instructions,21,321091,0.0-4.0-10.0,6978a4c5f1475ddbda96cde5,5e204990b062543612e9a254,6978b0b69c730744d0d73871,22,1,TRUE,1,TRUE,Player 22,61,symmetric,"[{""""page_index"""":0,""""viewing_time"""":86791}]",86791.599999994,"","",,"","","","","",,,,,
1,fullscreen,0,3082,0.0-0.0,6978a4c5f1475ddbda96cde5,5f78863ec51814422de56470,6978b115d6ea4c7c13dcbff4,23,1,TRUE,1,TRUE,Player 23,59,asymmetric,"",,"","",,"","","","","",,,,,
,instructions,1,36793,0.0-1.0,6978a4c5f1475ddbda96cde5,5f78863ec51814422de56470,6978b115d6ea4c7c13dcbff4,23,1,TRUE,1,TRUE,Player 23,59,asymmetric,"[{""""page_index"""":0,""""viewing_time"""":7222.300000011921},{""""page_index"""":1,""""viewing_time"""":4856.199999988079},{""""page_index"""":2,""""viewing_time"""":9266.5},{""""page_index"""":3,""""viewing_time"""":4637.0999999940395},{""""page_index"""":4,""""viewing_time"""":7727.300000011921}]",33709.8000000119,"","",,"","","","","",,,,,
,survey-multi-choice,2,43548,0.0-2.0,6978a4c5f1475ddbda96cde5,5f78863ec51814422de56470,6978b115d6ea4c7c13dcbff4,23,1,TRUE,1,TRUE,Player 23,59,asymmetric,"",6753.80000001192,"{""""Q0"""":""""... find all black cards whilst revealing as <b>few white cards</b> as possible""""}",[0],1,multichoice_part1,"","","","",,,,,
,instructions,3,45876,0.0-4.0-0.0,6978a4c5f1475ddbda96cde5,5f78863ec51814422de56470,6978b115d6ea4c7c13dcbff4,23,1,TRUE,1,TRUE,Player 23,59,asymmetric,"[{""""page_index"""":0,""""viewing_time"""":2327}]",2327.30000001192,"","",,"","","","","",,,,,
,findSquares,4,73031,0.0-4.0-1.0,6978a4c5f1475ddbda96cde5,5f78863ec51814422de56470,6978b115d6ea4c7c13dcbff4,23,1,TRUE,1,TRUE,Player 23,59,asymmetric,"",,"","",,"","[['0', '0', '1', '0'], ['1', '1', '1', '1'], ['1', '1', '1', '0'], ['0', '0', '0', '0']]","[[2, 2]]","{'i': [1, 2, 0, 1, 2, 3, 1, 0, 0, 1, 3, 0, 2], 'j': [1, 0, 1, 0, 3, 1, 2, 2, 3, 3, 2, 0, 1], 't': [3216.800000011921, 5728.200000017881, 7889.9000000059605, 10427.100000023842, 12946.90000000596, 14880.600000023842, 16061.90000000596, 17803.20000001788, 19440.30000001192, 20586.20000001788, 22720.90000000596, 24033.5, 25144.600000023842], 'hit': ['1', '1', '0', '1', '0', '0', '1', '1', '0', '1', '0', '0', '1'], 'b': []}","[['white', 'white', 'black', 'white'], ['black', 'black', 'black', 'black'], ['black', 'black', 'black', 'white'], ['unknown', 'white', 'white', 'unknown']]",13,0,2,,
,instructions,5,88305,0.0-4.0-2.0,6978a4c5f1475ddbda96cde5,5f78863ec51814422de56470,6978b115d6ea4c7c13dcbff4,23,1,TRUE,1,TRUE,Player 23,59,asymmetric,"[{""""page_index"""":0,""""viewing_time"""":15273.700000017881}]",15274.099999994,"","",,"","","","","",,,,,
,instructions,6,121521,0.0-4.0-3.0,6978a4c5f1475ddbda96cde5,5f78863ec51814422de56470,6978b115d6ea4c7c13dcbff4,23,1,TRUE,1,TRUE,Player 23,59,asymmetric,"[{""""page_index"""":0,""""viewing_time"""":29478.90000000596},{""""page_index"""":1,""""viewing_time"""":3736.0999999940395}]",33215.3000000119,"","",,"","","","","",,,,,
,findSquares,7,162632,0.0-4.0-4.0-0.0,6978a4c5f1475ddbda96cde5,5f78863ec51814422de56470,6978b115d6ea4c7c13dcbff4,23,1,TRUE,1,TRUE,Player 23,59,asymmetric,"",,"","",,non-pretend,"[['0', '0', '0', '0', '0', '0'], ['1', '1', '0', '0', '1', '1'], ['0', '0', '0', '0', '0', '0'], ['1', '0', '0', '0', '0', '1'], ['1', '1', '0', '0', '1', '1'], ['0', '0', '0', '0', '0', '0']]","[[1, 1], [1, 5], [3, 5], [4, 0]]","{'i': [2, 1, 1, 2, 0, 0, 1, 2, 1, 2, 0, 4, 3, 4, 0, 0, 4, 3, 5, 3, 4], 'j': [5, 4, 3, 4, 1, 2, 2, 1, 0, 0, 0, 1, 4, 5, 5, 4, 2, 1, 1, 0, 4], 't': [8223.299999982119, 11250.799999982119, 12957.699999988079, 14593.299999982119, 16676.5, 17778.69999998808, 18846.399999976158, 21313.59999999404, 22757, 23851.09999999404, 25513.59999999404, 27368.59999999404, 29013.59999999404, 30090.29999998212, 31604, 32803, 34438.59999999404, 35463.09999999404, 36214.79999998212, 37186.39999997616, 39094.39999997616], 'hit': ['0', '1', '0', '0', '0', '0', '0', '0', '1', '0', '0', '1', '0', '1', '0', '0', '0', '0', '0', '1', '1'], 'b': []}","[['white', 'white', 'white', 'unknown', 'white', 'white'], ['black', 'black', 'white', 'white', 'black', 'black'], ['white', 'white', 'unknown', 'unknown', 'white', 'white'], ['black', 'white', 'unknown', 'unknown', 'white', 'black'], ['black', 'black', 'white', 'unknown', 'black', 'black'], ['unknown', 'white', 'unknown', 'unknown', 'unknown', 'unknown']]",21,0,11,,1
,instructions,8,168388,0.0-4.0-4.0-1.0,6978a4c5f1475ddbda96cde5,5f78863ec51814422de56470,6978b115d6ea4c7c13dcbff4,23,1,TRUE,1,TRUE,Player 23,59,asymmetric,"[{""""page_index"""":0,""""viewing_time"""":5754.9000000059605}]",5755.30000001192,"","",,"","","","","",,,,,
,findSquares,9,200715,0.0-4.0-4.0-0.1,6978a4c5f1475ddbda96cde5,5f78863ec51814422de56470,6978b115d6ea4c7c13dcbff4,23,1,TRUE,1,TRUE,Player 23,59,asymmetric,"",,"","",,non-pretend,"[['0', '0', '0', '0', '0', '0'], ['0', '0', '0', '0', '0', '0'], ['0', '1', '1', '1', '0', '0'], ['0', '0', '1', '0', '0', '1'], ['1', '1', '0', '0', '0', '1'], ['1', '0', '0', '0', '0', '1']]","[[2, 2], [4, 1], [4, 5]]","{'i': [3, 3, 3, 3, 4, 4, 3, 5, 1, 2, 2, 5, 3, 2, 2, 2, 1, 1, 5], 'j': [2, 5, 4, 1, 2, 0, 0, 0, 2, 3, 5, 1, 3, 1, 4, 0, 3, 1, 5], 't': [1493.8999999761581, 4968.0999999940395, 7627.899999976158, 10025.899999976158, 11399.59999999404, 12615.899999976158, 13683.399999976158, 14768.299999982119, 16571, 17463.399999976158, 18985.5, 21707.19999998808, 23273.5, 24594.59999999404, 26126.59999999404, 27010.19999998808, 28393.09999999404, 29066.29999998212, 30317.5], 'hit': ['1', '1', '0', '0', '0', '1', '0', '1', '0', '1', '0', '0', '0', '1', '0', '0', '0', '0', '1'], 'b': []}","[['unknown', 'unknown', 'unknown', 'unknown', 'unknown', 'unknown'], ['unknown', 'white', 'white', 'white', 'unknown', 'unknown'], ['white', 'black', 'black', 'black', 'white', 'white'], ['white', 'white', 'black', 'white', 'white', 'black'], ['black', 'black', 'white', 'unknown', 'unknown', 'black'], ['black', 'white', 'unknown', 'unknown', 'unknown', 'black']]",19,0,14,,8
,instructions,10,203179,0.0-4.0-4.0-1.1,6978a4c5f1475ddbda96cde5,5f78863ec51814422de56470,6978b115d6ea4c7c13dcbff4,23,1,TRUE,1,TRUE,Player 23,59,asymmetric,"[{""""page_index"""":0,""""viewing_time"""":2462.9000000059605}]",2463.40000000596,"","",,"","","","","",,,,,
,findSquares,11,232966,0.0-4.0-4.0-0.2,6978a4c5f1475ddbda96cde5,5f78863ec51814422de56470,6978b115d6ea4c7c13dcbff4,23,1,TRUE,1,TRUE,Player 23,59,asymmetric,"",,"","",,non-pretend,"[['0', '0', '0', '0', '0', '0'], ['0', '0', '1', '1', '0', '0'], ['0', '0', '1', '0', '0', '0'], ['0', '1', '0', '0', '1', '0'], ['0', '1', '0', '0', '1', '1'], ['0', '1', '0', '0', '1', '0']]","[[1, 2], [4, 4], [5, 1]]","{'i': [4, 4, 1, 1, 0, 2, 3, 3, 2, 5, 4, 1, 2, 0, 2, 3], 'j': [1, 3, 3, 4, 2, 2, 4, 5, 4, 4, 5, 1, 3, 3, 1, 1], 't': [3113.800000011921, 5564.4000000059605, 6990.199999988079, 9300, 10385.40000000596, 11225.300000011921, 12826.300000011921, 14532.90000000596, 15959, 17411.5, 19170.69999998808, 23729.5, 25015.80000001192, 26153.80000001192, 27062.80000001192, 27771.90000000596], 'hit': ['1', '0', '1', '0', '0', '1', '1', '0', '0', '1', '1', '0', '0', '0', '0', '1'], 'b': []}","[['unknown', 'unknown', 'white', 'white', 'unknown', 'unknown'], ['unknown', 'white', 'black', 'black', 'white', 'unknown'], ['unknown', 'white', 'black', 'white', 'white', 'unknown'], ['unknown', 'black', 'unknown', 'unknown', 'black', 'white'], ['unknown', 'black', 'unknown', 'white', 'black', 'black'], ['unknown', 'black', 'unknown', 'unknown', 'black', 'unknown']]",16,0,17,,9
,instructions,12,235117,0.0-4.0-4.0-1.2,6978a4c5f1475ddbda96cde5,5f78863ec51814422de56470,6978b115d6ea4c7c13dcbff4,23,1,TRUE,1,TRUE,Player 23,59,asymmetric,"[{""""page_index"""":0,""""viewing_time"""":2150.5999999940395}]",2150.90000000596,"","",,"","","","","",,,,,
,findSquares,13,259916,0.0-4.0-4.0-0.3,6978a4c5f1475ddbda96cde5,5f78863ec51814422de56470,6978b115d6ea4c7c13dcbff4,23,1,TRUE,1,TRUE,Player 23,59,asymmetric,"",,"","",,non-pretend,"[['1', '1', '1', '0', '0', '1'], ['0', '0', '0', '0', '0', '1'], ['0', '0', '0', '0', '0', '0'], ['0', '0', '0', '0', '1', '0'], ['1', '1', '0', '1', '1', '0'], ['0', '0', '0', '0', '0', '0']]","[[0, 1], [0, 5], [4, 0], [4, 4]]","{'i': [0, 1, 1, 4, 3, 5, 4, 4, 3, 5, 4, 5, 3, 0, 0], 'j': [4, 1, 5, 5, 4, 4, 3, 1, 0, 0, 2, 1, 1, 0, 2], 't': [1775.300000011921, 3577.7000000178814, 5091.9000000059605, 6929.200000017881, 8189.300000011921, 9773, 10945.59999999404, 12258.59999999404, 13570.90000000596, 15189.200000017881, 16361.90000000596, 17271.80000001192, 18322, 19573.30000001192, 22793.30000001192], 'hit': ['0', '0', '1', '0', '1', '0', '1', '1', '0', '0', '0', '0', '0', '1', '1'], 'b': []}","[['black', 'black', 'black', 'unknown', 'white', 'black'], ['unknown', 'white', 'unknown', 'unknown', 'unknown', 'black'], ['unknown', 'unknown', 'unknown', 'unknown', 'unknown', 'unknown'], ['white', 'white', 'unknown', 'unknown', 'black', 'unknown'], ['black', 'black', 'white', 'black', 'black', 'white'], ['white', 'white', 'unknown', 'unknown', 'white', 'unknown']]",15,0,17,,10
,instructions,14,263092,0.0-4.0-4.0-1.3,6978a4c5f1475ddbda96cde5,5f78863ec51814422de56470,6978b115d6ea4c7c13dcbff4,23,1,TRUE,1,TRUE,Player 23,59,asymmetric,"[{""""page_index"""":0,""""viewing_time"""":3174.899999976158}]",3175.19999998808,"","",,"","","","","",,,,,
,instructions,15,265105,0.0-4.0-5.0,6978a4c5f1475ddbda96cde5,5f78863ec51814422de56470,6978b115d6ea4c7c13dcbff4,23,1,TRUE,1,TRUE,Player 23,59,asymmetric,"[{""""page_index"""":0,""""viewing_time"""":2012.0999999940395}]",2012.40000000596,"","",,"","","","","",,,,,
,instructions,16,297726,0.0-4.0-6.0-0.0,6978a4c5f1475ddbda96cde5,5f78863ec51814422de56470,6978b115d6ea4c7c13dcbff4,23,1,TRUE,1,TRUE,Player 23,59,asymmetric,"[{""""page_index"""":0,""""viewing_time"""":3630.5},{""""page_index"""":1,""""viewing_time"""":13580.59999999404},{""""page_index"""":2,""""viewing_time"""":4121.800000011921},{""""page_index"""":3,""""viewing_time"""":11287.5}]",32620.7000000179,"","",,"","","","","",,,,,
,survey-multi-choice,17,303623,0.0-4.0-6.0-1.0,6978a4c5f1475ddbda96cde5,5f78863ec51814422de56470,6978b115d6ea4c7c13dcbff4,23,1,TRUE,1,TRUE,Player 23,59,asymmetric,"",5896.30000001192,"{""""Q0"""":""""... <b>repeat</b> my clicks from the first round, in the same order""""}",[0],1,multichoice_reconstruction,"","","","",,,,,
,instructions,18,311105,0.0-4.0-7.0,6978a4c5f1475ddbda96cde5,5f78863ec51814422de56470,6978b115d6ea4c7c13dcbff4,23,1,TRUE,1,TRUE,Player 23,59,asymmetric,"[{""""page_index"""":0,""""viewing_time"""":7480.700000017881}]",7481.20000001788,"","",,"","","","","",,,,,
,findSquares,19,345150,0.0-4.0-8.0,6978a4c5f1475ddbda96cde5,5f78863ec51814422de56470,6978b115d6ea4c7c13dcbff4,23,1,TRUE,1,TRUE,Player 23,59,asymmetric,"",,"","",,memory,"[['0', '0', '0', '0', '0', '0'], ['1', '1', '0', '0', '1', '1'], ['0', '0', '0', '0', '0', '0'], ['1', '0', '0', '0', '0', '1'], ['1', '1', '0', '0', '1', '1'], ['0', '0', '0', '0', '0', '0']]","[[1, 1], [1, 5], [3, 5], [4, 0]]","{'i': [1, 3, 0, 0, 0, 1, 1, 1, 2, 4, 4, 4, 3, 4, 3], 'j': [4, 4, 3, 4, 1, 2, 0, 3, 4, 1, 5, 4, 1, 2, 0], 't': [5475.300000011921, 9439.09999999404, 14742.300000011921, 16623.09999999404, 18111.30000001192, 19213.30000001192, 20972.20000001788, 23265.09999999404, 24069.80000001192, 25198.80000001192, 26765, 27911.80000001192, 29548, 31166.20000001788, 32041.5], 'hit': ['1', '0', '0', '0', '0', '0', '1', '0', '0', '1', '1', '1', '0', '0', '1'], 'b': []}","[['unknown', 'white', 'unknown', 'white', 'white', 'unknown'], ['black', 'black', 'white', 'white', 'black', 'black'], ['unknown', 'unknown', 'unknown', 'unknown', 'white', 'unknown'], ['black', 'white', 'unknown', 'unknown', 'white', 'black'], ['black', 'black', 'white', 'unknown', 'black', 'black'], ['unknown', 'unknown', 'unknown', 'unknown', 'unknown', 'unknown']]",15,0,17,,1
,survey-text,20,349274,0.0-4.0-9.0,6978a4c5f1475ddbda96cde5,5f78863ec51814422de56470,6978b115d6ea4c7c13dcbff4,23,1,TRUE,1,TRUE,Player 23,59,asymmetric,"",4121,"{""""worker_comments"""":""""""""}","",,"","","","","",,,,,
,instructions,21,353954,0.0-4.0-10.0,6978a4c5f1475ddbda96cde5,5f78863ec51814422de56470,6978b115d6ea4c7c13dcbff4,23,1,TRUE,1,TRUE,Player 23,59,asymmetric,"[{""""page_index"""":0,""""viewing_time"""":4680}]",4680.5,"","",,"","","","","",,,,,
1,fullscreen,0,3338,0.0-0.0,6978a4c5f1475ddbda96cde5,5c62de3f48fe4e000180e09d,6978b12d2dae8c5374d06e61,24,1,TRUE,1,TRUE,Player 24,83,symmetric,"",,"","",,"","","","","",,,,,
,instructions,1,42008,0.0-1.0,6978a4c5f1475ddbda96cde5,5c62de3f48fe4e000180e09d,6978b12d2dae8c5374d06e61,24,1,TRUE,1,TRUE,Player 24,83,symmetric,"[{""""page_index"""":0,""""viewing_time"""":12284},{""""page_index"""":1,""""viewing_time"""":8186},{""""page_index"""":2,""""viewing_time"""":6746.4000000003725},{""""page_index"""":3,""""viewing_time"""":2831.5},{""""page_index"""":4,""""viewing_time"""":8620.699999999255}]",38668.8000000007,"","",,"","","","","",,,,,
,survey-multi-choice,2,47552,0.0-2.0,6978a4c5f1475ddbda96cde5,5c62de3f48fe4e000180e09d,6978b12d2dae8c5374d06e61,24,1,TRUE,1,TRUE,Player 24,83,symmetric,"",5542.70000000112,"{""""Q0"""":""""... find all black cards whilst revealing as <b>few white cards</b> as possible""""}",[0],1,multichoice_part1,"","","","",,,,,
,instructions,3,49922,0.0-4.0-0.0,6978a4c5f1475ddbda96cde5,5c62de3f48fe4e000180e09d,6978b12d2dae8c5374d06e61,24,1,TRUE,1,TRUE,Player 24,83,symmetric,"[{""""page_index"""":0,""""viewing_time"""":2369.2999999988824}]",2369.40000000037,"","",,"","","","","",,,,,
,findSquares,4,60200,0.0-4.0-1.0,6978a4c5f1475ddbda96cde5,5c62de3f48fe4e000180e09d,6978b12d2dae8c5374d06e61,24,1,TRUE,1,TRUE,Player 24,83,symmetric,"",,"","",,"","[['0', '0', '0', '0'], ['1', '1', '1', '1'], ['1', '1', '1', '1'], ['0', '0', '0', '0']]","[[2, 2]]","{'i': [1, 1, 2, 2, 1, 1, 2], 'j': [2, 1, 1, 3, 3, 0, 0], 't': [1610.2000000011176, 2598, 3465.4000000003725, 4846, 5449.700000001118, 7767.4000000003725, 8269.599999999627], 'hit': ['1', '1', '1', '1', '1', '1', '1'], 'b': []}","[['unknown', 'unknown', 'unknown', 'unknown'], ['black', 'black', 'black', 'black'], ['black', 'black', 'black', 'black'], ['unknown', 'unknown', 'unknown', 'unknown']]",7,0,8,,
,instructions,5,62910,0.0-4.0-2.0,6978a4c5f1475ddbda96cde5,5c62de3f48fe4e000180e09d,6978b12d2dae8c5374d06e61,24,1,TRUE,1,TRUE,Player 24,83,symmetric,"[{""""page_index"""":0,""""viewing_time"""":2709.0999999996275}]",2709.30000000075,"","",,"","","","","",,,,,
,instructions,6,81820,0.0-4.0-3.0,6978a4c5f1475ddbda96cde5,5c62de3f48fe4e000180e09d,6978b12d2dae8c5374d06e61,24,1,TRUE,1,TRUE,Player 24,83,symmetric,"[{""""page_index"""":0,""""viewing_time"""":16229.5},{""""page_index"""":1,""""viewing_time"""":2680.300000000745}]",18910,"","",,"","","","","",,,,,
,findSquares,7,110150,0.0-4.0-4.0-0.0,6978a4c5f1475ddbda96cde5,5c62de3f48fe4e000180e09d,6978b12d2dae8c5374d06e61,24,1,TRUE,1,TRUE,Player 24,83,symmetric,"",,"","",,non-pretend,"[['0', '0', '0', '0', '0', '0'], ['1', '1', '0', '0', '1', '1'], ['0', '0', '0', '0', '0', '0'], ['1', '0', '0', '0', '0', '1'], ['1', '1', '0', '0', '1', '1'], ['0', '0', '0', '0', '0', '0']]","[[1, 1], [1, 5], [3, 5], [4, 0]]","{'i': [1, 2, 0, 1, 4, 4, 0, 1, 5, 3, 4, 3, 4, 3], 'j': [2, 1, 1, 0, 1, 5, 5, 4, 1, 1, 4, 4, 3, 0], 't': [3250.699999999255, 4727, 6676.699999999255, 7338.699999999255, 8558.699999999255, 11229.199999999255, 12030.800000000745, 12740.800000000745, 20264.5, 20910.699999999255, 22422.900000000373, 24063.099999999627, 25504.699999999255, 26324.800000000745], 'hit': ['0', '0', '0', '1', '1', '1', '0', '1', '0', '0', '1', '0', '0', '1'], 'b': []}","[['unknown', 'white', 'unknown', 'unknown', 'unknown', 'white'], ['black', 'black', 'white', 'unknown', 'black', 'black'], ['unknown', 'white', 'unknown', 'unknown', 'unknown', 'unknown'], ['black', 'white', 'unknown', 'unknown', 'white', 'black'], ['black', 'black', 'unknown', 'white', 'black', 'black'], ['unknown', 'white', 'unknown', 'unknown', 'unknown', 'unknown']]",14,0,18,,1
,instructions,8,111948,0.0-4.0-4.0-1.0,6978a4c5f1475ddbda96cde5,5c62de3f48fe4e000180e09d,6978b12d2dae8c5374d06e61,24,1,TRUE,1,TRUE,Player 24,83,symmetric,"[{""""page_index"""":0,""""viewing_time"""":1797.5999999996275}]",1797.79999999888,"","",,"","","","","",,,,,
,findSquares,9,130183,0.0-4.0-4.0-0.1,6978a4c5f1475ddbda96cde5,5c62de3f48fe4e000180e09d,6978b12d2dae8c5374d06e61,24,1,TRUE,1,TRUE,Player 24,83,symmetric,"",,"","",,non-pretend,"[['1', '1', '0', '0', '1', '1'], ['0', '0', '0', '0', '0', '0'], ['0', '0', '0', '0', '0', '0'], ['1', '0', '0', '0', '0', '1'], ['1', '1', '0', '0', '1', '1'], ['0', '0', '0', '0', '0', '0']]","[[0, 1], [0, 5], [4, 0], [4, 4]]","{'i': [4, 0, 0, 4, 1, 3, 4, 1, 3, 1, 1, 3], 'j': [1, 0, 4, 5, 1, 1, 2, 4, 5, 5, 0, 0], 't': [3180.89999999851, 5568.799999998882, 6449.0999999996275, 7259, 9569, 10461.199999999255, 11459, 12281, 13594.799999998882, 14265, 15454.799999998882, 16226.89999999851], 'hit': ['1', '1', '1', '1', '0', '0', '0', '0', '1', '0', '0', '1'], 'b': []}","[['black', 'black', 'unknown', 'unknown', 'black', 'black'], ['white', 'white', 'unknown', 'unknown', 'white', 'white'], ['unknown', 'unknown', 'unknown', 'unknown', 'unknown', 'unknown'], ['black', 'white', 'unknown', 'unknown', 'unknown', 'black'], ['black', 'black', 'white', 'unknown', 'black', 'black'], ['unknown', 'unknown', 'unknown', 'unknown', 'unknown', 'unknown']]",12,0,20,,4
,instructions,10,131580,0.0-4.0-4.0-1.1,6978a4c5f1475ddbda96cde5,5c62de3f48fe4e000180e09d,6978b12d2dae8c5374d06e61,24,1,TRUE,1,TRUE,Player 24,83,symmetric,"[{""""page_index"""":0,""""viewing_time"""":1396.5}]",1396.80000000075,"","",,"","","","","",,,,,
,findSquares,11,157383,0.0-4.0-4.0-0.2,6978a4c5f1475ddbda96cde5,5c62de3f48fe4e000180e09d,6978b12d2dae8c5374d06e61,24,1,TRUE,1,TRUE,Player 24,83,symmetric,"",,"","",,non-pretend,"[['0', '0', '0', '0', '0', '0'], ['0', '0', '0', '0', '0', '0'], ['0', '0', '1', '1', '0', '0'], ['0', '0', '1', '1', '0', '0'], ['1', '1', '0', '0', '1', '1'], ['1', '0', '0', '0', '0', '1']]","[[2, 2], [4, 1], [4, 5]]","{'i': [3, 4, 4, 2, 2, 1, 3, 3, 4, 3, 2, 5, 5], 'j': [5, 4, 0, 3, 4, 2, 3, 2, 2, 1, 1, 0, 5], 't': [4383.5, 4997.199999999255, 6299.299999998882, 10836, 12611.299999998882, 13481.599999999627, 14475.299999998882, 15303.599999999627, 17415.5, 18485.400000000373, 19877.5, 23127.400000000373, 23793.299999998882], 'hit': ['0', '1', '1', '1', '0', '0', '1', '1', '0', '0', '0', '1', '1'], 'b': []}","[['unknown', 'unknown', 'unknown', 'unknown', 'unknown', 'unknown'], ['unknown', 'unknown', 'white', 'unknown', 'unknown', 'unknown'], ['unknown', 'white', 'black', 'black', 'white', 'unknown'], ['unknown', 'white', 'black', 'black', 'unknown', 'white'], ['black', 'black', 'white', 'unknown', 'black', 'black'], ['black', 'unknown', 'unknown', 'unknown', 'unknown', 'black']]",13,0,20,,2
,instructions,12,158658,0.0-4.0-4.0-1.2,6978a4c5f1475ddbda96cde5,5c62de3f48fe4e000180e09d,6978b12d2dae8c5374d06e61,24,1,TRUE,1,TRUE,Player 24,83,symmetric,"[{""""page_index"""":0,""""viewing_time"""":1274.2999999988824}]",1274.5,"","",,"","","","","",,,,,
,findSquares,13,174982,0.0-4.0-4.0-0.3,6978a4c5f1475ddbda96cde5,5c62de3f48fe4e000180e09d,6978b12d2dae8c5374d06e61,24,1,TRUE,1,TRUE,Player 24,83,symmetric,"",,"","",,non-pretend,"[['0', '0', '0', '0', '0', '0'], ['0', '0', '1', '1', '0', '0'], ['0', '0', '1', '1', '0', '0'], ['0', '1', '0', '0', '1', '0'], ['0', '1', '0', '0', '1', '0'], ['0', '1', '0', '0', '1', '0']]","[[1, 2], [4, 4], [5, 1]]","{'i': [5, 4, 1, 0, 2, 2, 3, 3], 'j': [4, 1, 3, 3, 3, 2, 1, 4], 't': [3741.699999999255, 4646, 6823.5, 8975.699999999255, 9625.400000000373, 10337.299999998882, 13567.5, 14321.599999999627], 'hit': ['1', '1', '1', '0', '1', '1', '1', '1'], 'b': []}","[['unknown', 'unknown', 'unknown', 'white', 'unknown', 'unknown'], ['unknown', 'unknown', 'black', 'black', 'unknown', 'unknown'], ['unknown', 'unknown', 'black', 'black', 'unknown', 'unknown'], ['unknown', 'black', 'unknown', 'unknown', 'black', 'unknown'], ['unknown', 'black', 'unknown', 'unknown', 'black', 'unknown'], ['unknown', 'black', 'unknown', 'unknown', 'black', 'unknown']]",8,0,25,,3
,instructions,14,176352,0.0-4.0-4.0-1.3,6978a4c5f1475ddbda96cde5,5c62de3f48fe4e000180e09d,6978b12d2dae8c5374d06e61,24,1,TRUE,1,TRUE,Player 24,83,symmetric,"[{""""page_index"""":0,""""viewing_time"""":1368.8999999985099}]",1369.09999999963,"","",,"","","","","",,,,,
,instructions,15,179646,0.0-4.0-5.0,6978a4c5f1475ddbda96cde5,5c62de3f48fe4e000180e09d,6978b12d2dae8c5374d06e61,24,1,TRUE,1,TRUE,Player 24,83,symmetric,"[{""""page_index"""":0,""""viewing_time"""":3293.699999999255}]",3293.90000000037,"","",,"","","","","",,,,,
,instructions,16,195560,0.0-4.0-6.0-0.0,6978a4c5f1475ddbda96cde5,5c62de3f48fe4e000180e09d,6978b12d2dae8c5374d06e61,24,1,TRUE,1,TRUE,Player 24,83,symmetric,"[{""""page_index"""":0,""""viewing_time"""":3565.4000000003725},{""""page_index"""":1,""""viewing_time"""":5224.300000000745},{""""page_index"""":2,""""viewing_time"""":1199.7999999988824},{""""page_index"""":3,""""viewing_time"""":5924}]",15913.7000000011,"","",,"","","","","",,,,,
,survey-multi-choice,17,199920,0.0-4.0-6.0-1.0,6978a4c5f1475ddbda96cde5,5c62de3f48fe4e000180e09d,6978b12d2dae8c5374d06e61,24,1,TRUE,1,TRUE,Player 24,83,symmetric,"",4359.20000000112,"{""""Q0"""":""""... <b>repeat</b> my clicks from the first round, in the same order""""}",[0],1,multichoice_reconstruction,"","","","",,,,,
,instructions,18,203094,0.0-4.0-7.0,6978a4c5f1475ddbda96cde5,5c62de3f48fe4e000180e09d,6978b12d2dae8c5374d06e61,24,1,TRUE,1,TRUE,Player 24,83,symmetric,"[{""""page_index"""":0,""""viewing_time"""":3173.199999999255}]",3173.40000000037,"","",,"","","","","",,,,,
