success,trial_type,trial_index,time_elapsed,internal_node_id,STUDY_ID,PROLIFIC_PID,SESSION_ID,participant_number,reconstruction_instructions,comprehend_reconstruction,nonpretend_instructions,comprehend_np,nickname,bonus,view_history,rt,responses,question_order,correct,test_part,grid,already_clicked,click_log,final_grid_state,num_clicks,cheat,round_points,misses,grid_number,white_cards_reported
1,fullscreen,0,3827,0.0-0.0,68514e6ca359134eff9c664a,6672fb66728df1edb72c1568,68516c2b31de875104994ede,65,1,TRUE,1,TRUE,Player 65,68,"",,"","",,"","","","","",,,,,,
,instructions,1,73115,0.0-1.0,68514e6ca359134eff9c664a,6672fb66728df1edb72c1568,68516c2b31de875104994ede,65,1,TRUE,1,TRUE,Player 65,68,"[{""""page_index"""":0,""""viewing_time"""":28436.200000047684},{""""page_index"""":1,""""viewing_time"""":11272.399999976158},{""""page_index"""":2,""""viewing_time"""":10184.299999952316},{""""page_index"""":3,""""viewing_time"""":5552.100000023842},{""""page_index"""":4,""""viewing_time"""":13840.200000047684}]",69285.7999999523,"","",,"","","","","",,,,,,
,survey-multi-choice,2,105709,0.0-2.0,68514e6ca359134eff9c664a,6672fb66728df1edb72c1568,68516c2b31de875104994ede,65,1,TRUE,1,TRUE,Player 65,68,"",32591.5,"{""""Q0"""":""""... find all black cards whilst revealing as <b>few white<b> cards as possible""""}",[0],1,multichoice_part1,"","","","",,,,,,
,instructions,3,109747,0.0-4.0-0.0,68514e6ca359134eff9c664a,6672fb66728df1edb72c1568,68516c2b31de875104994ede,65,1,TRUE,1,TRUE,Player 65,68,"[{""""page_index"""":0,""""viewing_time"""":4037.2000000476837}]",4037.60000002384,"","",,"","","","","",,,,,,
,findSquares,4,134252,0.0-4.0-1.0,68514e6ca359134eff9c664a,6672fb66728df1edb72c1568,68516c2b31de875104994ede,65,1,TRUE,1,TRUE,Player 65,68,"",,"","",,"","[['0', '0', '0', '0'], ['1', '1', '1', '1'], ['1', '1', '1', '1'], ['0', '0', '0', '0']]","[[2, 3]]","{'i': [2, 1, 1, 2, 0, 1, 0, 3, 1, 2], 'j': [2, 2, 1, 1, 1, 3, 3, 3, 0, 0], 't': [2045.7999999523163, 3189.2999999523163, 4821.699999928474, 5781.299999952316, 11077.899999976158, 14101.799999952316, 17085.799999952316, 19437.799999952316, 21262.5, 22485.399999976158], 'hit': ['1', '1', '1', '1', '0', '1', '0', '0', '1', '1'], 'b': []}","[['unknown', 'white', 'unknown', 'white'], ['black', 'black', 'black', 'black'], ['black', 'black', 'black', 'black'], ['unknown', 'unknown', 'unknown', 'white']]",10,0,5,,,
,instructions,5,139285,0.0-4.0-2.0,68514e6ca359134eff9c664a,6672fb66728df1edb72c1568,68516c2b31de875104994ede,65,1,TRUE,1,TRUE,Player 65,68,"[{""""page_index"""":0,""""viewing_time"""":5032.100000023842}]",5032.60000002384,"","",,"","","","","",,,,,,
,instructions,6,163901,0.0-4.0-3.0,68514e6ca359134eff9c664a,6672fb66728df1edb72c1568,68516c2b31de875104994ede,65,1,TRUE,1,TRUE,Player 65,68,"[{""""page_index"""":0,""""viewing_time"""":20694.800000071526},{""""page_index"""":1,""""viewing_time"""":3919.7999999523163}]",24614.9000000954,"","",,"","","","","",,,,,,
,findSquares,7,194376,0.0-4.0-4.0-0.0,68514e6ca359134eff9c664a,6672fb66728df1edb72c1568,68516c2b31de875104994ede,65,1,TRUE,1,TRUE,Player 65,68,"",,"","",,non-pretend,"[['0', '0', '0', '0', '0', '0'], ['1', '1', '0', '0', '1', '1'], ['0', '0', '0', '0', '0', '0'], ['1', '0', '0', '0', '0', '1'], ['1', '1', '0', '0', '1', '1'], ['0', '0', '0', '0', '0', '0']]","[[1, 1], [1, 5], [3, 5], [4, 0]]","{'i': [3, 2, 4, 5, 4, 4, 3, 4, 0, 1, 2, 1, 2, 5, 3, 5, 4, 0, 1], 'j': [4, 5, 5, 5, 4, 1, 1, 2, 1, 0, 0, 2, 1, 1, 0, 0, 3, 5, 4], 't': [1797.5, 3325.1999999284744, 4837.600000023842, 5869.699999928474, 6967.299999952316, 9741.799999952316, 10741.5, 11973.699999928474, 15325.600000023842, 16269.299999952316, 17285.299999952316, 18285.299999952316, 19581.399999976158, 21845.600000023842, 23078.299999952316, 24101.699999928474, 26349.5, 27559.5, 28470.100000023842], 'hit': ['0', '0', '1', '0', '1', '1', '0', '0', '0', '1', '0', '0', '0', '0', '1', '0', '0', '0', '1'], 'b': []}","[['unknown', 'white', 'unknown', 'unknown', 'unknown', 'white'], ['black', 'black', 'white', 'unknown', 'black', 'black'], ['white', 'white', 'unknown', 'unknown', 'unknown', 'white'], ['black', 'white', 'unknown', 'unknown', 'white', 'black'], ['black', 'black', 'white', 'white', 'black', 'black'], ['white', 'white', 'unknown', 'unknown', 'unknown', 'white']]",19,0,13,,1,
,instructions,8,200550,0.0-4.0-4.0-1.0,68514e6ca359134eff9c664a,6672fb66728df1edb72c1568,68516c2b31de875104994ede,65,1,TRUE,1,TRUE,Player 65,68,"[{""""page_index"""":0,""""viewing_time"""":6173.599999904633}]",6173.89999997616,"","",,"","","","","",,,,,,
,findSquares,9,225246,0.0-4.0-4.0-0.1,68514e6ca359134eff9c664a,6672fb66728df1edb72c1568,68516c2b31de875104994ede,65,1,TRUE,1,TRUE,Player 65,68,"",,"","",,non-pretend,"[['0', '0', '0', '0', '0', '0'], ['0', '0', '1', '1', '0', '0'], ['0', '0', '1', '1', '0', '0'], ['0', '1', '0', '0', '1', '0'], ['0', '1', '0', '0', '1', '0'], ['0', '1', '0', '0', '1', '0']]","[[1, 2], [4, 4], [5, 1]]","{'i': [5, 5, 4, 3, 3, 2, 4, 0, 2, 3, 2, 1, 5], 'j': [0, 2, 1, 1, 4, 4, 5, 2, 2, 2, 3, 3, 4], 't': [2309.399999976158, 3261.2999999523163, 4725.5, 5822.299999952316, 7573.5, 8462.100000023842, 9741, 11534.700000047684, 12934.700000047684, 13918.799999952316, 15567.299999952316, 18573.799999952316, 22693.600000023842], 'hit': ['0', '0', '1', '1', '1', '0', '0', '0', '1', '0', '1', '1', '1'], 'b': []}","[['unknown', 'unknown', 'white', 'unknown', 'unknown', 'unknown'], ['unknown', 'unknown', 'black', 'black', 'unknown', 'unknown'], ['unknown', 'unknown', 'black', 'black', 'white', 'unknown'], ['unknown', 'black', 'white', 'unknown', 'black', 'unknown'], ['unknown', 'black', 'unknown', 'unknown', 'black', 'white'], ['white', 'black', 'white', 'unknown', 'black', 'unknown']]",13,0,20,,3,
,instructions,10,230351,0.0-4.0-4.0-1.1,68514e6ca359134eff9c664a,6672fb66728df1edb72c1568,68516c2b31de875104994ede,65,1,TRUE,1,TRUE,Player 65,68,"[{""""page_index"""":0,""""viewing_time"""":5103.600000023842}]",5103.89999997616,"","",,"","","","","",,,,,,
,findSquares,11,267079,0.0-4.0-4.0-0.2,68514e6ca359134eff9c664a,6672fb66728df1edb72c1568,68516c2b31de875104994ede,65,1,TRUE,1,TRUE,Player 65,68,"",,"","",,non-pretend,"[['0', '0', '0', '0', '0', '0'], ['0', '0', '0', '0', '0', '0'], ['0', '0', '1', '1', '0', '0'], ['0', '0', '1', '1', '0', '0'], ['1', '1', '0', '0', '1', '1'], ['1', '0', '0', '0', '0', '1']]","[[2, 2], [4, 1], [4, 5]]","{'i': [5, 5, 3, 3, 4, 4, 1, 2, 3, 4, 3, 2, 1, 2, 3, 3, 5, 5, 4], 'j': [5, 1, 1, 5, 2, 0, 2, 3, 3, 3, 4, 1, 3, 4, 2, 0, 0, 4, 4], 't': [3413.7000000476837, 5191, 7910.400000095367, 9639.400000095367, 11455.800000071526, 13230.300000071526, 14255.800000071526, 16086.900000095367, 17693.800000071526, 19503.5, 20862.200000047684, 23974.900000095367, 25558.800000071526, 26694.800000071526, 28318.5, 30926.200000047684, 32280.100000023842, 33686.200000047684, 34712], 'hit': ['1', '0', '0', '0', '0', '1', '0', '1', '1', '0', '0', '0', '0', '0', '1', '0', '1', '0', '1'], 'b': []}","[['unknown', 'unknown', 'unknown', 'unknown', 'unknown', 'unknown'], ['unknown', 'unknown', 'white', 'white', 'unknown', 'unknown'], ['unknown', 'white', 'black', 'black', 'white', 'unknown'], ['white', 'white', 'black', 'black', 'white', 'white'], ['black', 'black', 'white', 'white', 'black', 'black'], ['black', 'white', 'unknown', 'unknown', 'white', 'black']]",19,0,14,,2,
,instructions,12,292248,0.0-4.0-4.0-1.2,68514e6ca359134eff9c664a,6672fb66728df1edb72c1568,68516c2b31de875104994ede,65,1,TRUE,1,TRUE,Player 65,68,"[{""""page_index"""":0,""""viewing_time"""":25167.600000023842}]",25168.1000000238,"","",,"","","","","",,,,,,
,findSquares,13,315842,0.0-4.0-4.0-0.3,68514e6ca359134eff9c664a,6672fb66728df1edb72c1568,68516c2b31de875104994ede,65,1,TRUE,1,TRUE,Player 65,68,"",,"","",,non-pretend,"[['1', '1', '0', '0', '1', '1'], ['0', '0', '0', '0', '0', '0'], ['0', '0', '0', '0', '0', '0'], ['1', '0', '0', '0', '0', '1'], ['1', '1', '0', '0', '1', '1'], ['0', '0', '0', '0', '0', '0']]","[[0, 1], [0, 5], [4, 0], [4, 4]]","{'i': [0, 0, 4, 4, 3, 1, 5, 4, 1, 3, 3], 'j': [0, 4, 1, 5, 1, 1, 1, 2, 5, 5, 0], 't': [3701.5, 4949.399999976158, 6308.5, 7324.399999976158, 9516.5, 10508.200000047684, 12997.399999976158, 14700, 17541.100000023842, 20596.399999976158, 21589], 'hit': ['1', '1', '1', '1', '0', '0', '0', '0', '0', '1', '1'], 'b': []}","[['black', 'black', 'unknown', 'unknown', 'black', 'black'], ['unknown', 'white', 'unknown', 'unknown', 'unknown', 'white'], ['unknown', 'unknown', 'unknown', 'unknown', 'unknown', 'unknown'], ['black', 'white', 'unknown', 'unknown', 'unknown', 'black'], ['black', 'black', 'white', 'unknown', 'black', 'black'], ['unknown', 'white', 'unknown', 'unknown', 'unknown', 'unknown']]",11,0,21,,4,
,instructions,14,321353,0.0-4.0-4.0-1.3,68514e6ca359134eff9c664a,6672fb66728df1edb72c1568,68516c2b31de875104994ede,65,1,TRUE,1,TRUE,Player 65,68,"[{""""page_index"""":0,""""viewing_time"""":5510.200000047684}]",5510.70000004768,"","",,"","","","","",,,,,,
,instructions,15,327754,0.0-4.0-5.0,68514e6ca359134eff9c664a,6672fb66728df1edb72c1568,68516c2b31de875104994ede,65,1,TRUE,1,TRUE,Player 65,68,"[{""""page_index"""":0,""""viewing_time"""":6400.100000023842}]",6400.5,"","",,"","","","","",,,,,,
,instructions,16,362402,0.0-4.0-6.0-0.0,68514e6ca359134eff9c664a,6672fb66728df1edb72c1568,68516c2b31de875104994ede,65,1,TRUE,1,TRUE,Player 65,68,"[{""""page_index"""":0,""""viewing_time"""":6742.699999928474},{""""page_index"""":1,""""viewing_time"""":11552},{""""page_index"""":2,""""viewing_time"""":3248},{""""page_index"""":3,""""viewing_time"""":13104.600000023842}]",34648,"","",,"","","","","",,,,,,
,survey-multi-choice,17,368947,0.0-4.0-6.0-1.0,68514e6ca359134eff9c664a,6672fb66728df1edb72c1568,68516c2b31de875104994ede,65,1,TRUE,1,TRUE,Player 65,68,"",6542.80000007153,"{""""Q0"""":""""... <b>repeat</b> my clicks from the first round, in the same order""""}",[0],1,multichoice_reconstruction,"","","","",,,,,,
,survey-html-form,18,393572,0.0-4.0-7.0,68514e6ca359134eff9c664a,6672fb66728df1edb72c1568,68516c2b31de875104994ede,65,1,TRUE,1,TRUE,Player 65,68,"",24622.6000000238,"{""""white_count"""":""""5""""}","",,white_card_report,"","","","",,,,,,5
,instructions,19,406491,0.0-4.0-8.0,68514e6ca359134eff9c664a,6672fb66728df1edb72c1568,68516c2b31de875104994ede,65,1,TRUE,1,TRUE,Player 65,68,"[{""""page_index"""":0,""""viewing_time"""":12918.5}]",12918.9000000954,"","",,"","","","","",,,,,,
,findSquares,20,451368,0.0-4.0-9.0,68514e6ca359134eff9c664a,6672fb66728df1edb72c1568,68516c2b31de875104994ede,65,1,TRUE,1,TRUE,Player 65,68,"",,"","",,memory,"[['0', '0', '0', '0', '0', '0'], ['1', '1', '0', '0', '1', '1'], ['0', '0', '0', '0', '0', '0'], ['1', '0', '0', '0', '0', '1'], ['1', '1', '0', '0', '1', '1'], ['0', '0', '0', '0', '0', '0']]","[[1, 1], [1, 5], [3, 5], [4, 0]]","{'i': [4, 5, 3, 3, 1, 3, 4, 4, 1], 'j': [5, 5, 0, 1, 0, 4, 4, 1, 4], 't': [4895.299999952316, 6670.299999952316, 10750.599999904633, 12375.199999928474, 19342.399999976158, 30254.599999904633, 34086.59999990463, 40711.89999997616, 42863], 'hit': ['1', '0', '1', '0', '1', '0', '1', '1', '1'], 'b': []}","[['unknown', 'unknown', 'unknown', 'unknown', 'unknown', 'unknown'], ['black', 'black', 'unknown', 'unknown', 'black', 'black'], ['unknown', 'unknown', 'unknown', 'unknown', 'unknown', 'unknown'], ['black', 'white', 'unknown', 'unknown', 'white', 'black'], ['black', 'black', 'unknown', 'unknown', 'black', 'black'], ['unknown', 'unknown', 'unknown', 'unknown', 'unknown', 'white']]",9,0,23,,1,
,survey-text,21,556161,0.0-4.0-10.0,68514e6ca359134eff9c664a,6672fb66728df1edb72c1568,68516c2b31de875104994ede,65,1,TRUE,1,TRUE,Player 65,68,"",104788.399999976,"{""""worker_comments"""":""""That was good, interesting and the twist at the end was nice, good job""""}","",,"","","","","",,,,,,
,instructions,22,569480,0.0-4.0-11.0,68514e6ca359134eff9c664a,6672fb66728df1edb72c1568,68516c2b31de875104994ede,65,1,TRUE,1,TRUE,Player 65,68,"[{""""page_index"""":0,""""viewing_time"""":13317.299999952316}]",13317.7999999523,"","",,"","","","","",,,,,,
1,fullscreen,0,2453,0.0-0.0,68514e6ca359134eff9c664a,5b228fcf50fde60001033592,6851752ddab5ec540f1b1365,66,2,TRUE,1,TRUE,Player 66,56,"",,"","",,"","","","","",,,,,,
,instructions,1,29731,0.0-1.0,68514e6ca359134eff9c664a,5b228fcf50fde60001033592,6851752ddab5ec540f1b1365,66,2,TRUE,1,TRUE,Player 66,56,"[{""""page_index"""":0,""""viewing_time"""":7090.79999999702},{""""page_index"""":1,""""viewing_time"""":7302},{""""page_index"""":2,""""viewing_time"""":6933.20000000298},{""""page_index"""":3,""""viewing_time"""":3428.2999999970198},{""""page_index"""":4,""""viewing_time"""":2517.5}]",27273.5,"","",,"","","","","",,,,,,
,survey-multi-choice,2,49346,0.0-2.0,68514e6ca359134eff9c664a,5b228fcf50fde60001033592,6851752ddab5ec540f1b1365,66,2,TRUE,1,TRUE,Player 66,56,"",19609.3999999911,"{""""Q0"""":""""... find all black cards whilst revealing as <b>few white<b> cards as possible""""}",[0],1,multichoice_part1,"","","","",,,,,,
,instructions,3,51317,0.0-4.0-0.0,68514e6ca359134eff9c664a,5b228fcf50fde60001033592,6851752ddab5ec540f1b1365,66,2,TRUE,1,TRUE,Player 66,56,"[{""""page_index"""":0,""""viewing_time"""":1968}]",1969.10000000894,"","",,"","","","","",,,,,,
,findSquares,4,64422,0.0-4.0-1.0,68514e6ca359134eff9c664a,5b228fcf50fde60001033592,6851752ddab5ec540f1b1365,66,2,TRUE,1,TRUE,Player 66,56,"",,"","",,"","[['0', '0', '0', '0'], ['1', '1', '1', '1'], ['1', '1', '1', '1'], ['0', '0', '0', '0']]","[[2, 3]]","{'i': [2, 2, 1, 0, 1, 1, 2, 3, 1], 'j': [2, 1, 1, 1, 2, 0, 0, 1, 3], 't': [2131.5, 3385.7999999970198, 4155, 5620.5, 6631.600000008941, 8091.9000000059605, 8855.70000000298, 10052.90000000596, 11074.20000000298], 'hit': ['1', '1', '1', '0', '1', '1', '1', '0', '1'], 'b': []}","[['unknown', 'white', 'unknown', 'unknown'], ['black', 'black', 'black', 'black'], ['black', 'black', 'black', 'black'], ['unknown', 'white', 'unknown', 'unknown']]",9,0,6,,,
,instructions,5,67280,0.0-4.0-2.0,68514e6ca359134eff9c664a,5b228fcf50fde60001033592,6851752ddab5ec540f1b1365,66,2,TRUE,1,TRUE,Player 66,56,"[{""""page_index"""":0,""""viewing_time"""":2855.2999999970198}]",2855.89999999106,"","",,"","","","","",,,,,,
,instructions,6,83796,0.0-4.0-3.0,68514e6ca359134eff9c664a,5b228fcf50fde60001033592,6851752ddab5ec540f1b1365,66,2,TRUE,1,TRUE,Player 66,56,"[{""""page_index"""":0,""""viewing_time"""":14280.70000000298},{""""page_index"""":1,""""viewing_time"""":2233.5}]",16515.200000003,"","",,"","","","","",,,,,,
,findSquares,7,115847,0.0-4.0-4.0-0.0,68514e6ca359134eff9c664a,5b228fcf50fde60001033592,6851752ddab5ec540f1b1365,66,2,TRUE,1,TRUE,Player 66,56,"",,"","",,non-pretend,"[['1', '1', '0', '0', '1', '1'], ['0', '0', '0', '0', '0', '0'], ['0', '0', '0', '0', '0', '0'], ['1', '0', '0', '0', '0', '1'], ['1', '1', '0', '0', '1', '1'], ['0', '0', '0', '0', '0', '0']]","[[0, 1], [0, 5], [4, 0], [4, 4]]","{'i': [1, 0, 0, 1, 0, 3, 4, 4, 3, 3, 5, 1, 1, 0, 1, 4, 4, 5, 3], 'j': [1, 2, 0, 0, 4, 4, 1, 2, 1, 0, 0, 4, 5, 3, 3, 3, 5, 5, 5], 't': [3075.5, 5231.29999999702, 6874, 7690.4000000059605, 9195.29999999702, 11451.90000000596, 12590.5, 13842, 14853.40000000596, 15803.09999999404, 19736.09999999404, 22227.5, 23796.59999999404, 24713, 25922.59999999404, 26814.79999999702, 27791.90000000596, 28707, 30040], 'hit': ['0', '0', '1', '0', '1', '0', '1', '0', '0', '1', '0', '0', '0', '0', '0', '0', '1', '0', '1'], 'b': []}","[['black', 'black', 'white', 'white', 'black', 'black'], ['white', 'white', 'unknown', 'white', 'white', 'white'], ['unknown', 'unknown', 'unknown', 'unknown', 'unknown', 'unknown'], ['black', 'white', 'unknown', 'unknown', 'white', 'black'], ['black', 'black', 'white', 'white', 'black', 'black'], ['white', 'unknown', 'unknown', 'unknown', 'unknown', 'white']]",19,0,13,,4,
,instructions,8,117727,0.0-4.0-4.0-1.0,68514e6ca359134eff9c664a,5b228fcf50fde60001033592,6851752ddab5ec540f1b1365,66,2,TRUE,1,TRUE,Player 66,56,"[{""""page_index"""":0,""""viewing_time"""":1878.6000000089407}]",1879.60000000894,"","",,"","","","","",,,,,,
,findSquares,9,138307,0.0-4.0-4.0-0.1,68514e6ca359134eff9c664a,5b228fcf50fde60001033592,6851752ddab5ec540f1b1365,66,2,TRUE,1,TRUE,Player 66,56,"",,"","",,non-pretend,"[['0', '0', '0', '0', '0', '0'], ['1', '1', '0', '0', '1', '1'], ['0', '0', '0', '0', '0', '0'], ['1', '0', '0', '0', '0', '1'], ['1', '1', '0', '0', '1', '1'], ['0', '0', '0', '0', '0', '0']]","[[1, 1], [1, 5], [3, 5], [4, 0]]","{'i': [1, 1, 4, 4, 0, 2, 1, 1, 2, 3, 3, 2, 0, 0, 3, 4], 'j': [2, 0, 1, 5, 5, 5, 4, 3, 0, 0, 1, 1, 1, 0, 4, 4], 't': [1362.7999999970198, 2197.199999988079, 4462.699999988079, 5681, 6606.199999988079, 7612.399999991059, 8543.199999988079, 10057.29999999702, 11864.199999988079, 13225.699999988079, 14260, 15236.199999988079, 16308.39999999106, 16885.59999999404, 17916.39999999106, 18570.89999999106], 'hit': ['0', '1', '1', '1', '0', '0', '1', '0', '0', '1', '0', '0', '0', '0', '0', '1'], 'b': []}","[['white', 'white', 'unknown', 'unknown', 'unknown', 'white'], ['black', 'black', 'white', 'white', 'black', 'black'], ['white', 'white', 'unknown', 'unknown', 'unknown', 'white'], ['black', 'white', 'unknown', 'unknown', 'white', 'black'], ['black', 'black', 'unknown', 'unknown', 'black', 'black'], ['unknown', 'unknown', 'unknown', 'unknown', 'unknown', 'unknown']]",16,0,16,,1,
,instructions,10,139918,0.0-4.0-4.0-1.1,68514e6ca359134eff9c664a,5b228fcf50fde60001033592,6851752ddab5ec540f1b1365,66,2,TRUE,1,TRUE,Player 66,56,"[{""""page_index"""":0,""""viewing_time"""":1610.2000000029802}]",1610.5,"","",,"","","","","",,,,,,
,findSquares,11,167418,0.0-4.0-4.0-0.2,68514e6ca359134eff9c664a,5b228fcf50fde60001033592,6851752ddab5ec540f1b1365,66,2,TRUE,1,TRUE,Player 66,56,"",,"","",,non-pretend,"[['0', '0', '0', '0', '0', '0'], ['0', '0', '1', '1', '0', '0'], ['0', '0', '1', '1', '0', '0'], ['0', '1', '0', '0', '1', '0'], ['0', '1', '0', '0', '1', '0'], ['0', '1', '0', '0', '1', '0']]","[[1, 2], [4, 4], [5, 1]]","{'i': [2, 5, 4, 3, 5, 4, 3, 3, 2, 2, 3, 3, 4, 5, 5, 5, 0, 1, 1, 2], 'j': [2, 2, 3, 4, 0, 1, 1, 2, 1, 4, 3, 5, 5, 4, 5, 3, 2, 1, 3, 3], 't': [1478, 2691.8999999910593, 3631, 5770.0999999940395, 7854.5999999940395, 8660.29999999702, 9969.09999999404, 12201.699999988079, 13048.699999988079, 14031.09999999404, 15709.59999999404, 16544.69999998808, 17181.39999999106, 17943.09999999404, 19220.5, 20064, 22164.09999999404, 23006.89999999106, 23719, 25488.29999999702], 'hit': ['1', '0', '0', '1', '0', '1', '1', '0', '0', '0', '0', '0', '0', '1', '0', '0', '0', '0', '1', '1'], 'b': []}","[['unknown', 'unknown', 'white', 'unknown', 'unknown', 'unknown'], ['unknown', 'white', 'black', 'black', 'unknown', 'unknown'], ['unknown', 'white', 'black', 'black', 'white', 'unknown'], ['unknown', 'black', 'white', 'white', 'black', 'white'], ['unknown', 'black', 'unknown', 'white', 'black', 'white'], ['white', 'black', 'white', 'white', 'black', 'white']]",20,0,13,,3,
,instructions,12,168896,0.0-4.0-4.0-1.2,68514e6ca359134eff9c664a,5b228fcf50fde60001033592,6851752ddab5ec540f1b1365,66,2,TRUE,1,TRUE,Player 66,56,"[{""""page_index"""":0,""""viewing_time"""":1476.2999999970198}]",1477.5,"","",,"","","","","",,,,,,
,findSquares,13,197607,0.0-4.0-4.0-0.3,68514e6ca359134eff9c664a,5b228fcf50fde60001033592,6851752ddab5ec540f1b1365,66,2,TRUE,1,TRUE,Player 66,56,"",,"","",,non-pretend,"[['0', '0', '0', '0', '0', '0'], ['0', '0', '0', '0', '0', '0'], ['0', '0', '1', '1', '0', '0'], ['0', '0', '1', '1', '0', '0'], ['1', '1', '0', '0', '1', '1'], ['1', '0', '0', '0', '0', '1']]","[[2, 2], [4, 1], [4, 5]]","{'i': [3, 4, 2, 3, 5, 5, 3, 4, 5, 5, 1, 1, 2, 3, 4, 4, 2, 3, 3], 'j': [3, 2, 3, 5, 5, 1, 1, 0, 0, 4, 3, 2, 4, 4, 3, 4, 1, 0, 2], 't': [1920.2000000029802, 3214.5999999940395, 5062.0999999940395, 7817.899999991059, 8469, 10363.20000000298, 11725.39999999106, 12730, 13823.5, 16152.59999999404, 17528, 18320.39999999106, 19218.70000000298, 19884.89999999106, 20667.79999999702, 21604.20000000298, 22674.79999999702, 24165.29999999702, 26691.70000000298], 'hit': ['1', '0', '1', '0', '1', '0', '0', '1', '1', '0', '0', '0', '0', '0', '0', '1', '0', '0', '1'], 'b': []}","[['unknown', 'unknown', 'unknown', 'unknown', 'unknown', 'unknown'], ['unknown', 'unknown', 'white', 'white', 'unknown', 'unknown'], ['unknown', 'white', 'black', 'black', 'white', 'unknown'], ['white', 'white', 'black', 'black', 'white', 'white'], ['black', 'black', 'white', 'white', 'black', 'black'], ['black', 'white', 'unknown', 'unknown', 'white', 'black']]",19,0,14,,2,
,instructions,14,199384,0.0-4.0-4.0-1.3,68514e6ca359134eff9c664a,5b228fcf50fde60001033592,6851752ddab5ec540f1b1365,66,2,TRUE,1,TRUE,Player 66,56,"[{""""page_index"""":0,""""viewing_time"""":1776.4000000059605}]",1777.10000000894,"","",,"","","","","",,,,,,
,instructions,15,200685,0.0-4.0-5.0,68514e6ca359134eff9c664a,5b228fcf50fde60001033592,6851752ddab5ec540f1b1365,66,2,TRUE,1,TRUE,Player 66,56,"[{""""page_index"""":0,""""viewing_time"""":1299.5}]",1300.29999999702,"","",,"","","","","",,,,,,
,instructions,16,215659,0.0-4.0-6.0-0.0,68514e6ca359134eff9c664a,5b228fcf50fde60001033592,6851752ddab5ec540f1b1365,66,2,TRUE,1,TRUE,Player 66,56,"[{""""page_index"""":0,""""viewing_time"""":2409.5},{""""page_index"""":1,""""viewing_time"""":6144},{""""page_index"""":2,""""viewing_time"""":1234.5999999940395},{""""page_index"""":3,""""viewing_time"""":5183.70000000298}]",14972.3999999911,"","",,"","","","","",,,,,,
,survey-multi-choice,17,225424,0.0-4.0-6.0-1.0,68514e6ca359134eff9c664a,5b228fcf50fde60001033592,6851752ddab5ec540f1b1365,66,2,TRUE,1,TRUE,Player 66,56,"",9760.5,"{""""Q0"""":""""... find all black cards whilst revealing as <b>few white</b> cards as possible""""}",[0],0,multichoice_reconstruction,"","","","",,,,,,
,instructions,18,234593,0.0-4.0-6.1-0.1,68514e6ca359134eff9c664a,5b228fcf50fde60001033592,6851752ddab5ec540f1b1365,66,2,TRUE,1,TRUE,Player 66,56,"[{""""page_index"""":0,""""viewing_time"""":1781.4000000059605},{""""page_index"""":1,""""viewing_time"""":3105.5999999940395},{""""page_index"""":2,""""viewing_time"""":1078.6000000089407},{""""page_index"""":3,""""viewing_time"""":3200.7999999970198}]",9167.20000000298,"","",,"","","","","",,,,,,
,survey-multi-choice,19,237082,0.0-4.0-6.1-1.1,68514e6ca359134eff9c664a,5b228fcf50fde60001033592,6851752ddab5ec540f1b1365,66,2,TRUE,1,TRUE,Player 66,56,"",2485.5,"{""""Q0"""":""""... <b>repeat</b> my clicks from the first round, in the same order""""}",[0],1,multichoice_reconstruction,"","","","",,,,,,
,survey-html-form,20,241962,0.0-4.0-7.0,68514e6ca359134eff9c664a,5b228fcf50fde60001033592,6851752ddab5ec540f1b1365,66,2,TRUE,1,TRUE,Player 66,56,"",4873.5,"{""""white_count"""":""""6""""}","",,white_card_report,"","","","",,,,,,6
,instructions,21,243831,0.0-4.0-8.0,68514e6ca359134eff9c664a,5b228fcf50fde60001033592,6851752ddab5ec540f1b1365,66,2,TRUE,1,TRUE,Player 66,56,"[{""""page_index"""":0,""""viewing_time"""":1866.8999999910593}]",1867.89999999106,"","",,"","","","","",,,,,,
,findSquares,22,263895,0.0-4.0-9.0,68514e6ca359134eff9c664a,5b228fcf50fde60001033592,6851752ddab5ec540f1b1365,66,2,TRUE,1,TRUE,Player 66,56,"",,"","",,memory,"[['1', '1', '0', '0', '1', '1'], ['0', '0', '0', '0', '0', '0'], ['0', '0', '0', '0', '0', '0'], ['1', '0', '0', '0', '0', '1'], ['1', '1', '0', '0', '1', '1'], ['0', '0', '0', '0', '0', '0']]","[[0, 1], [0, 5], [4, 0], [4, 4]]","{'i': [0, 0, 4, 4, 3, 3, 4, 4, 1, 0, 0, 1, 1, 1, 3, 3, 5, 5, 5, 3, 3], 'j': [0, 4, 5, 1, 2, 3, 2, 3, 2, 2, 3, 3, 4, 1, 1, 4, 4, 1, 0, 0, 5], 't': [1266.3999999910593, 1924, 2722.7999999970198, 3484, 4438.399999991059, 5119.29999999702, 5976.5999999940395, 6560.5999999940395, 8297.79999999702, 9013.29999999702, 9664.29999999702, 10123.699999988079, 11179.79999999702, 12017.39999999106, 12644.89999999106, 13538.699999988079, 14121.89999999106, 14825.199999988079, 15719.5, 16564.29999999702, 18055.59999999404], 'hit': ['1', '1', '1', '1', '0', '0', '0', '0', '0', '0', '0', '0', '0', '0', '0', '0', '0', '0', '0', '1', '1'], 'b': []}","[['black', 'black', 'white', 'white', 'black', 'black'], ['unknown', 'white', 'white', 'white', 'white', 'unknown'], ['unknown', 'unknown', 'unknown', 'unknown', 'unknown', 'unknown'], ['black', 'white', 'white', 'white', 'white', 'black'], ['black', 'black', 'white', 'white', 'black', 'black'], ['white', 'white', 'unknown', 'unknown', 'white', 'unknown']]",21,0,11,,4,
,survey-text,23,267919,0.0-4.0-10.0,68514e6ca359134eff9c664a,5b228fcf50fde60001033592,6851752ddab5ec540f1b1365,66,2,TRUE,1,TRUE,Player 66,56,"",4017.59999999404,"{""""worker_comments"""":""""""""}","",,"","","","","",,,,,,
,instructions,24,272677,0.0-4.0-11.0,68514e6ca359134eff9c664a,5b228fcf50fde60001033592,6851752ddab5ec540f1b1365,66,2,TRUE,1,TRUE,Player 66,56,"[{""""page_index"""":0,""""viewing_time"""":4756}]",4756.40000000596,"","",,"","","","","",,,,,,
1,fullscreen,0,3490,0.0-0.0,68514e6ca359134eff9c664a,645a0f712b769eff5a97d2b2,6851752ce10ae6b84082c74a,67,1,TRUE,1,TRUE,Player 67,79,"",,"","",,"","","","","",,,,,,
,instructions,1,65909,0.0-1.0,68514e6ca359134eff9c664a,645a0f712b769eff5a97d2b2,6851752ce10ae6b84082c74a,67,1,TRUE,1,TRUE,Player 67,79,"[{""""page_index"""":0,""""viewing_time"""":12664.899999976158},{""""page_index"""":1,""""viewing_time"""":11906.200000047684},{""""page_index"""":2,""""viewing_time"""":26119.799999952316},{""""page_index"""":3,""""viewing_time"""":5156.100000023842},{""""page_index"""":4,""""viewing_time"""":6570}]",62417.5,"","",,"","","","","",,,,,,
,survey-multi-choice,2,73304,0.0-2.0,68514e6ca359134eff9c664a,645a0f712b769eff5a97d2b2,6851752ce10ae6b84082c74a,67,1,TRUE,1,TRUE,Player 67,79,"",7393.19999998808,"{""""Q0"""":""""... find all black cards whilst revealing as <b>few white<b> cards as possible""""}",[0],1,multichoice_part1,"","","","",,,,,,
,instructions,3,78695,0.0-4.0-0.0,68514e6ca359134eff9c664a,645a0f712b769eff5a97d2b2,6851752ce10ae6b84082c74a,67,1,TRUE,1,TRUE,Player 67,79,"[{""""page_index"""":0,""""viewing_time"""":5389.900000035763}]",5390.20000004768,"","",,"","","","","",,,,,,
,findSquares,4,105366,0.0-4.0-1.0,68514e6ca359134eff9c664a,645a0f712b769eff5a97d2b2,6851752ce10ae6b84082c74a,67,1,TRUE,1,TRUE,Player 67,79,"",,"","",,"","[['0', '0', '0', '0'], ['1', '1', '1', '1'], ['1', '1', '1', '1'], ['0', '0', '0', '0']]","[[2, 3]]","{'i': [1, 2, 1, 0, 3, 3, 2, 1, 2, 1], 'j': [2, 1, 0, 0, 0, 2, 2, 1, 0, 3], 't': [4033.699999988079, 8495.399999976158, 11373.399999976158, 12887.199999988079, 16803.30000001192, 21352.30000001192, 22709.69999998808, 23473.399999976158, 24041.599999964237, 24657.30000001192], 'hit': ['1', '1', '1', '0', '0', '0', '1', '1', '1', '1'], 'b': []}","[['white', 'unknown', 'unknown', 'unknown'], ['black', 'black', 'black', 'black'], ['black', 'black', 'black', 'black'], ['white', 'unknown', 'white', 'unknown']]",10,0,5,,,
,instructions,5,110702,0.0-4.0-2.0,68514e6ca359134eff9c664a,645a0f712b769eff5a97d2b2,6851752ce10ae6b84082c74a,67,1,TRUE,1,TRUE,Player 67,79,"[{""""page_index"""":0,""""viewing_time"""":5334.100000023842}]",5334.5,"","",,"","","","","",,,,,,
,instructions,6,150629,0.0-4.0-3.0,68514e6ca359134eff9c664a,645a0f712b769eff5a97d2b2,6851752ce10ae6b84082c74a,67,1,TRUE,1,TRUE,Player 67,79,"[{""""page_index"""":0,""""viewing_time"""":36321.09999996424},{""""page_index"""":1,""""viewing_time"""":3605.900000035763}]",39927.2999999523,"","",,"","","","","",,,,,,
,findSquares,7,230081,0.0-4.0-4.0-0.0,68514e6ca359134eff9c664a,645a0f712b769eff5a97d2b2,6851752ce10ae6b84082c74a,67,1,TRUE,1,TRUE,Player 67,79,"",,"","",,non-pretend,"[['1', '1', '0', '0', '1', '1'], ['0', '0', '0', '0', '0', '0'], ['0', '0', '0', '0', '0', '0'], ['1', '0', '0', '0', '0', '1'], ['1', '1', '0', '0', '1', '1'], ['0', '0', '0', '0', '0', '0']]","[[0, 1], [0, 5], [4, 0], [4, 4]]","{'i': [3, 2, 4, 3, 1, 0, 0, 1, 0, 1, 4, 5, 3, 4], 'j': [0, 1, 3, 4, 1, 0, 4, 4, 3, 5, 5, 5, 5, 1], 't': [5317.300000011921, 10943.400000035763, 17292.900000035763, 25327.80000001192, 32537.400000035763, 34231.700000047684, 45379.40000003576, 49263.30000001192, 52461.5, 55176.40000003576, 63271.5, 66244.20000004768, 70411.80000001192, 77437.5], 'hit': ['1', '0', '0', '0', '0', '1', '1', '0', '0', '0', '1', '0', '1', '1'], 'b': []}","[['black', 'black', 'unknown', 'white', 'black', 'black'], ['unknown', 'white', 'unknown', 'unknown', 'white', 'white'], ['unknown', 'white', 'unknown', 'unknown', 'unknown', 'unknown'], ['black', 'unknown', 'unknown', 'unknown', 'white', 'black'], ['black', 'black', 'unknown', 'white', 'black', 'black'], ['unknown', 'unknown', 'unknown', 'unknown', 'unknown', 'white']]",14,0,18,,4,
,instructions,8,234678,0.0-4.0-4.0-1.0,68514e6ca359134eff9c664a,645a0f712b769eff5a97d2b2,6851752ce10ae6b84082c74a,67,1,TRUE,1,TRUE,Player 67,79,"[{""""page_index"""":0,""""viewing_time"""":4596.099999964237}]",4596.39999997616,"","",,"","","","","",,,,,,
,findSquares,9,311394,0.0-4.0-4.0-0.1,68514e6ca359134eff9c664a,645a0f712b769eff5a97d2b2,6851752ce10ae6b84082c74a,67,1,TRUE,1,TRUE,Player 67,79,"",,"","",,non-pretend,"[['0', '0', '0', '0', '0', '0'], ['0', '0', '1', '1', '0', '0'], ['0', '0', '1', '1', '0', '0'], ['0', '1', '0', '0', '1', '0'], ['0', '1', '0', '0', '1', '0'], ['0', '1', '0', '0', '1', '0']]","[[1, 2], [4, 4], [5, 1]]","{'i': [5, 4, 4, 3, 3, 5, 1, 1, 5, 0, 4, 2, 2, 2], 'j': [0, 1, 2, 1, 4, 4, 3, 4, 3, 2, 0, 1, 2, 3], 't': [4159.400000035763, 5369, 12420.900000035763, 14908.100000023842, 20024.600000023842, 20999.200000047684, 23821.400000035763, 25726.100000023842, 32573.5, 35280.30000001192, 48752.5, 60349.5, 73280.20000004768, 74699.70000004768], 'hit': ['0', '1', '0', '1', '1', '1', '1', '0', '0', '0', '0', '0', '1', '1'], 'b': []}","[['unknown', 'unknown', 'white', 'unknown', 'unknown', 'unknown'], ['unknown', 'unknown', 'black', 'black', 'white', 'unknown'], ['unknown', 'white', 'black', 'black', 'unknown', 'unknown'], ['unknown', 'black', 'unknown', 'unknown', 'black', 'unknown'], ['white', 'black', 'white', 'unknown', 'black', 'unknown'], ['white', 'black', 'unknown', 'white', 'black', 'unknown']]",14,0,19,,3,
,instructions,10,315309,0.0-4.0-4.0-1.1,68514e6ca359134eff9c664a,645a0f712b769eff5a97d2b2,6851752ce10ae6b84082c74a,67,1,TRUE,1,TRUE,Player 67,79,"[{""""page_index"""":0,""""viewing_time"""":3913.199999988079}]",3913.59999996424,"","",,"","","","","",,,,,,
,findSquares,11,376203,0.0-4.0-4.0-0.2,68514e6ca359134eff9c664a,645a0f712b769eff5a97d2b2,6851752ce10ae6b84082c74a,67,1,TRUE,1,TRUE,Player 67,79,"",,"","",,non-pretend,"[['0', '0', '0', '0', '0', '0'], ['0', '0', '0', '0', '0', '0'], ['0', '0', '1', '1', '0', '0'], ['0', '0', '1', '1', '0', '0'], ['1', '1', '0', '0', '1', '1'], ['1', '0', '0', '0', '0', '1']]","[[2, 2], [4, 1], [4, 5]]","{'i': [3, 4, 4, 4, 2, 1, 2, 5, 5, 5, 3, 3, 3], 'j': [1, 2, 0, 4, 3, 2, 1, 1, 5, 0, 5, 2, 3], 't': [3286, 6149, 8554, 10016.899999976158, 16317.300000011921, 22635.5, 29451, 41266.39999997616, 46919.39999997616, 48401.89999997616, 54063.19999998808, 57977.19999998808, 58875.60000002384], 'hit': ['0', '0', '1', '1', '1', '0', '0', '0', '1', '1', '0', '1', '1'], 'b': []}","[['unknown', 'unknown', 'unknown', 'unknown', 'unknown', 'unknown'], ['unknown', 'unknown', 'white', 'unknown', 'unknown', 'unknown'], ['unknown', 'white', 'black', 'black', 'unknown', 'unknown'], ['unknown', 'white', 'black', 'black', 'unknown', 'white'], ['black', 'black', 'white', 'unknown', 'black', 'black'], ['black', 'white', 'unknown', 'unknown', 'unknown', 'black']]",13,0,20,,2,
,instructions,12,378859,0.0-4.0-4.0-1.2,68514e6ca359134eff9c664a,645a0f712b769eff5a97d2b2,6851752ce10ae6b84082c74a,67,1,TRUE,1,TRUE,Player 67,79,"[{""""page_index"""":0,""""viewing_time"""":2655.199999988079}]",2655.59999996424,"","",,"","","","","",,,,,,
,findSquares,13,410965,0.0-4.0-4.0-0.3,68514e6ca359134eff9c664a,645a0f712b769eff5a97d2b2,6851752ce10ae6b84082c74a,67,1,TRUE,1,TRUE,Player 67,79,"",,"","",,non-pretend,"[['0', '0', '0', '0', '0', '0'], ['1', '1', '0', '0', '1', '1'], ['0', '0', '0', '0', '0', '0'], ['1', '0', '0', '0', '0', '1'], ['1', '1', '0', '0', '1', '1'], ['0', '0', '0', '0', '0', '0']]","[[1, 1], [1, 5], [3, 5], [4, 0]]","{'i': [2, 3, 4, 3, 1, 1, 0, 0, 4, 4], 'j': [1, 4, 5, 0, 0, 4, 1, 0, 1, 4], 't': [3247.5, 7185.5, 15709.699999988079, 16505.599999964237, 18789.69999998808, 19431, 23867.399999976158, 27167.69999998808, 28709.599999964237, 30097.80000001192], 'hit': ['0', '0', '1', '1', '1', '1', '0', '0', '1', '1'], 'b': []}","[['white', 'white', 'unknown', 'unknown', 'unknown', 'unknown'], ['black', 'black', 'unknown', 'unknown', 'black', 'black'], ['unknown', 'white', 'unknown', 'unknown', 'unknown', 'unknown'], ['black', 'unknown', 'unknown', 'unknown', 'white', 'black'], ['black', 'black', 'unknown', 'unknown', 'black', 'black'], ['unknown', 'unknown', 'unknown', 'unknown', 'unknown', 'unknown']]",10,0,22,,1,
,instructions,14,413523,0.0-4.0-4.0-1.3,68514e6ca359134eff9c664a,645a0f712b769eff5a97d2b2,6851752ce10ae6b84082c74a,67,1,TRUE,1,TRUE,Player 67,79,"[{""""page_index"""":0,""""viewing_time"""":2557}]",2557.39999997616,"","",,"","","","","",,,,,,
,instructions,15,417368,0.0-4.0-5.0,68514e6ca359134eff9c664a,645a0f712b769eff5a97d2b2,6851752ce10ae6b84082c74a,67,1,TRUE,1,TRUE,Player 67,79,"[{""""page_index"""":0,""""viewing_time"""":3843.7000000476837}]",3844,"","",,"","","","","",,,,,,
,instructions,16,448115,0.0-4.0-6.0-0.0,68514e6ca359134eff9c664a,645a0f712b769eff5a97d2b2,6851752ce10ae6b84082c74a,67,1,TRUE,1,TRUE,Player 67,79,"[{""""page_index"""":0,""""viewing_time"""":5364.399999976158},{""""page_index"""":1,""""viewing_time"""":12320.300000011921},{""""page_index"""":2,""""viewing_time"""":2168.099999964237},{""""page_index"""":3,""""viewing_time"""":10893.800000011921}]",30746.8999999762,"","",,"","","","","",,,,,,
,survey-multi-choice,17,454502,0.0-4.0-6.0-1.0,68514e6ca359134eff9c664a,645a0f712b769eff5a97d2b2,6851752ce10ae6b84082c74a,67,1,TRUE,1,TRUE,Player 67,79,"",6385.5,"{""""Q0"""":""""... <b>repeat</b> my clicks from the first round, in the same order""""}",[0],1,multichoice_reconstruction,"","","","",,,,,,
,survey-html-form,18,465036,0.0-4.0-7.0,68514e6ca359134eff9c664a,645a0f712b769eff5a97d2b2,6851752ce10ae6b84082c74a,67,1,TRUE,1,TRUE,Player 67,79,"",10532,"{""""white_count"""":""""8""""}","",,white_card_report,"","","","",,,,,,8
,instructions,19,480467,0.0-4.0-8.0,68514e6ca359134eff9c664a,645a0f712b769eff5a97d2b2,6851752ce10ae6b84082c74a,67,1,TRUE,1,TRUE,Player 67,79,"[{""""page_index"""":0,""""viewing_time"""":15429.799999952316}]",15430.0999999642,"","",,"","","","","",,,,,,
,findSquares,20,502516,0.0-4.0-9.0,68514e6ca359134eff9c664a,645a0f712b769eff5a97d2b2,6851752ce10ae6b84082c74a,67,1,TRUE,1,TRUE,Player 67,79,"",,"","",,memory,"[['1', '1', '0', '0', '1', '1'], ['0', '0', '0', '0', '0', '0'], ['0', '0', '0', '0', '0', '0'], ['1', '0', '0', '0', '0', '1'], ['1', '1', '0', '0', '1', '1'], ['0', '0', '0', '0', '0', '0']]","[[0, 1], [0, 5], [4, 0], [4, 4]]","{'i': [4, 3, 5, 1, 0, 0, 0, 3, 4], 'j': [1, 0, 0, 1, 0, 2, 4, 5, 5], 't': [6102.5, 7240.599999964237, 10508.599999964237, 13892.5, 15920.699999988079, 18156.69999998808, 18797.69999998808, 19724.69999998808, 20036.599999964237], 'hit': ['1', '1', '0', '0', '1', '0', '1', '1', '1'], 'b': []}","[['black', 'black', 'white', 'unknown', 'black', 'black'], ['unknown', 'white', 'unknown', 'unknown', 'unknown', 'unknown'], ['unknown', 'unknown', 'unknown', 'unknown', 'unknown', 'unknown'], ['black', 'unknown', 'unknown', 'unknown', 'unknown', 'black'], ['black', 'black', 'unknown', 'unknown', 'black', 'black'], ['white', 'unknown', 'unknown', 'unknown', 'unknown', 'unknown']]",9,0,23,,4,
,survey-text,21,512778,0.0-4.0-10.0,68514e6ca359134eff9c664a,645a0f712b769eff5a97d2b2,6851752ce10ae6b84082c74a,67,1,TRUE,1,TRUE,Player 67,79,"",10258,"{""""worker_comments"""":""""interesting""""}","",,"","","","","",,,,,,
,instructions,22,523848,0.0-4.0-11.0,68514e6ca359134eff9c664a,645a0f712b769eff5a97d2b2,6851752ce10ae6b84082c74a,67,1,TRUE,1,TRUE,Player 67,79,"[{""""page_index"""":0,""""viewing_time"""":11068.300000011921}]",11068.6000000238,"","",,"","","","","",,,,,,
1,fullscreen,0,3937,0.0-0.0,68514e6ca359134eff9c664a,6840f58e49c87231ca790212,6851754154c8c97183544ef3,68,1,TRUE,1,TRUE,Player 68,67,"",,"","",,"","","","","",,,,,,
,instructions,1,87595,0.0-1.0,68514e6ca359134eff9c664a,6840f58e49c87231ca790212,6851754154c8c97183544ef3,68,1,TRUE,1,TRUE,Player 68,67,"[{""""page_index"""":0,""""viewing_time"""":17132.199999999255},{""""page_index"""":1,""""viewing_time"""":19407.400000002235},{""""page_index"""":2,""""viewing_time"""":19288},{""""page_index"""":3,""""viewing_time"""":8608.099999997765},{""""page_index"""":4,""""viewing_time"""":19216}]",83652.4000000022,"","",,"","","","","",,,,,,
,survey-multi-choice,2,112659,0.0-2.0,68514e6ca359134eff9c664a,6840f58e49c87231ca790212,6851754154c8c97183544ef3,68,1,TRUE,1,TRUE,Player 68,67,"",25061.9000000022,"{""""Q0"""":""""... find all black cards whilst revealing as <b>few white<b> cards as possible""""}",[0],1,multichoice_part1,"","","","",,,,,,
,instructions,3,115850,0.0-4.0-0.0,68514e6ca359134eff9c664a,6840f58e49c87231ca790212,6851754154c8c97183544ef3,68,1,TRUE,1,TRUE,Player 68,67,"[{""""page_index"""":0,""""viewing_time"""":3189}]",3189.5,"","",,"","","","","",,,,,,
,findSquares,4,140357,0.0-4.0-1.0,68514e6ca359134eff9c664a,6840f58e49c87231ca790212,6851754154c8c97183544ef3,68,1,TRUE,1,TRUE,Player 68,67,"",,"","",,"","[['0', '0', '0', '0'], ['1', '1', '1', '1'], ['1', '1', '1', '1'], ['0', '0', '0', '0']]","[[2, 3]]","{'i': [1, 0, 1, 2, 2, 3, 1, 0, 1, 2], 'j': [2, 0, 3, 2, 1, 2, 1, 2, 0, 0], 't': [6095.70000000298, 11039.900000002235, 13464.20000000298, 14463.70000000298, 15410.900000002235, 16311.70000000298, 18096.300000000745, 20505.300000000745, 21863.5, 22487.900000002235], 'hit': ['1', '0', '1', '1', '1', '0', '1', '0', '1', '1'], 'b': []}","[['white', 'unknown', 'white', 'unknown'], ['black', 'black', 'black', 'black'], ['black', 'black', 'black', 'black'], ['unknown', 'unknown', 'white', 'unknown']]",10,0,5,,,
,instructions,5,143809,0.0-4.0-2.0,68514e6ca359134eff9c664a,6840f58e49c87231ca790212,6851754154c8c97183544ef3,68,1,TRUE,1,TRUE,Player 68,67,"[{""""page_index"""":0,""""viewing_time"""":3451.199999999255}]",3451.5,"","",,"","","","","",,,,,,
,instructions,6,212946,0.0-4.0-3.0,68514e6ca359134eff9c664a,6840f58e49c87231ca790212,6851754154c8c97183544ef3,68,1,TRUE,1,TRUE,Player 68,67,"[{""""page_index"""":0,""""viewing_time"""":31879},{""""page_index"""":1,""""viewing_time"""":37256.199999999255}]",69135.5999999978,"","",,"","","","","",,,,,,
,findSquares,7,257679,0.0-4.0-4.0-0.0,68514e6ca359134eff9c664a,6840f58e49c87231ca790212,6851754154c8c97183544ef3,68,1,TRUE,1,TRUE,Player 68,67,"",,"","",,non-pretend,"[['0', '0', '0', '0', '0', '0'], ['0', '0', '0', '0', '0', '0'], ['0', '0', '1', '1', '0', '0'], ['0', '0', '1', '1', '0', '0'], ['1', '1', '0', '0', '1', '1'], ['1', '0', '0', '0', '0', '1']]","[[2, 2], [4, 1], [4, 5]]","{'i': [1, 3, 3, 4, 3, 2, 3, 3, 2, 1, 2, 5, 4, 1, 2, 0, 0, 0, 5, 4, 5, 5, 4], 'j': [2, 2, 1, 2, 3, 3, 5, 4, 4, 0, 0, 1, 3, 3, 1, 5, 2, 0, 0, 0, 5, 4, 4], 't': [3251.5, 4431.800000000745, 5397.699999999255, 6338.699999999255, 7246.199999999255, 8154.800000000745, 14619.199999999255, 15402.800000000745, 17365.39999999851, 19603.199999999255, 20234.800000000745, 21586.800000000745, 23258.699999999255, 29850.800000000745, 30923.099999997765, 33603.39999999851, 34538.599999997765, 35611.199999999255, 36730.800000000745, 37778.599999997765, 40826.599999997765, 41642.5, 42714.699999999255], 'hit': ['0', '1', '0', '0', '1', '1', '0', '0', '0', '0', '0', '0', '0', '0', '0', '0', '0', '0', '1', '1', '1', '0', '1'], 'b': []}","[['white', 'unknown', 'white', 'unknown', 'unknown', 'white'], ['white', 'unknown', 'white', 'white', 'unknown', 'unknown'], ['white', 'white', 'black', 'black', 'white', 'unknown'], ['unknown', 'white', 'black', 'black', 'white', 'white'], ['black', 'black', 'white', 'white', 'black', 'black'], ['black', 'white', 'unknown', 'unknown', 'white', 'black']]",23,0,10,,2,
,instructions,8,263049,0.0-4.0-4.0-1.0,68514e6ca359134eff9c664a,6840f58e49c87231ca790212,6851754154c8c97183544ef3,68,1,TRUE,1,TRUE,Player 68,67,"[{""""page_index"""":0,""""viewing_time"""":5367.5}]",5368,"","",,"","","","","",,,,,,
,findSquares,9,277506,0.0-4.0-4.0-0.1,68514e6ca359134eff9c664a,6840f58e49c87231ca790212,6851754154c8c97183544ef3,68,1,TRUE,1,TRUE,Player 68,67,"",,"","",,non-pretend,"[['1', '1', '0', '0', '1', '1'], ['0', '0', '0', '0', '0', '0'], ['0', '0', '0', '0', '0', '0'], ['1', '0', '0', '0', '0', '1'], ['1', '1', '0', '0', '1', '1'], ['0', '0', '0', '0', '0', '0']]","[[0, 1], [0, 5], [4, 0], [4, 4]]","{'i': [1, 0, 0, 0, 0, 5, 3, 3, 4, 4, 4, 3], 'j': [5, 4, 3, 2, 0, 0, 0, 1, 1, 3, 5, 5], 't': [1842.300000000745, 2746.10000000149, 3732.10000000149, 4658.10000000149, 5780, 6851.300000000745, 8250.800000000745, 9122.10000000149, 9850.300000000745, 10708.800000000745, 11681.800000000745, 12441.900000002235], 'hit': ['0', '1', '0', '0', '1', '0', '1', '0', '1', '0', '1', '1'], 'b': []}","[['black', 'black', 'white', 'white', 'black', 'black'], ['unknown', 'unknown', 'unknown', 'unknown', 'unknown', 'white'], ['unknown', 'unknown', 'unknown', 'unknown', 'unknown', 'unknown'], ['black', 'white', 'unknown', 'unknown', 'unknown', 'black'], ['black', 'black', 'unknown', 'white', 'black', 'black'], ['white', 'unknown', 'unknown', 'unknown', 'unknown', 'unknown']]",12,0,20,,4,
,instructions,10,279376,0.0-4.0-4.0-1.1,68514e6ca359134eff9c664a,6840f58e49c87231ca790212,6851754154c8c97183544ef3,68,1,TRUE,1,TRUE,Player 68,67,"[{""""page_index"""":0,""""viewing_time"""":1869.300000000745}]",1869.90000000224,"","",,"","","","","",,,,,,
,findSquares,11,291871,0.0-4.0-4.0-0.2,68514e6ca359134eff9c664a,6840f58e49c87231ca790212,6851754154c8c97183544ef3,68,1,TRUE,1,TRUE,Player 68,67,"",,"","",,non-pretend,"[['0', '0', '0', '0', '0', '0'], ['1', '1', '0', '0', '1', '1'], ['0', '0', '0', '0', '0', '0'], ['1', '0', '0', '0', '0', '1'], ['1', '1', '0', '0', '1', '1'], ['0', '0', '0', '0', '0', '0']]","[[1, 1], [1, 5], [3, 5], [4, 0]]","{'i': [4, 0, 2, 1, 1, 5, 3, 4, 4], 'j': [5, 5, 5, 4, 0, 0, 0, 1, 4], 't': [1807.1000000014901, 3181.300000000745, 4230, 5213.20000000298, 6352, 7789.800000000745, 8549.800000000745, 9517.300000000745, 10485.800000000745], 'hit': ['1', '0', '0', '1', '1', '0', '1', '1', '1'], 'b': []}","[['unknown', 'unknown', 'unknown', 'unknown', 'unknown', 'white'], ['black', 'black', 'unknown', 'unknown', 'black', 'black'], ['unknown', 'unknown', 'unknown', 'unknown', 'unknown', 'white'], ['black', 'unknown', 'unknown', 'unknown', 'unknown', 'black'], ['black', 'black', 'unknown', 'unknown', 'black', 'black'], ['white', 'unknown', 'unknown', 'unknown', 'unknown', 'unknown']]",9,0,23,,1,
,instructions,12,293648,0.0-4.0-4.0-1.2,68514e6ca359134eff9c664a,6840f58e49c87231ca790212,6851754154c8c97183544ef3,68,1,TRUE,1,TRUE,Player 68,67,"[{""""page_index"""":0,""""viewing_time"""":1776.199999999255}]",1776.59999999776,"","",,"","","","","",,,,,,
,findSquares,13,318972,0.0-4.0-4.0-0.3,68514e6ca359134eff9c664a,6840f58e49c87231ca790212,6851754154c8c97183544ef3,68,1,TRUE,1,TRUE,Player 68,67,"",,"","",,non-pretend,"[['0', '0', '0', '0', '0', '0'], ['0', '0', '1', '1', '0', '0'], ['0', '0', '1', '1', '0', '0'], ['0', '1', '0', '0', '1', '0'], ['0', '1', '0', '0', '1', '0'], ['0', '1', '0', '0', '1', '0']]","[[1, 2], [4, 4], [5, 1]]","{'i': [5, 4, 5, 5, 1, 0, 0, 3, 3, 4, 5, 4, 3, 2, 3, 3, 5, 2, 2], 'j': [4, 1, 2, 0, 3, 2, 3, 3, 2, 3, 3, 2, 4, 4, 1, 5, 5, 3, 2], 't': [2152.099999997765, 3333.7999999970198, 4647.79999999702, 6109.599999997765, 7528.29999999702, 8760, 9365.699999999255, 10925.5, 11693.39999999851, 12341.39999999851, 12949.29999999702, 13605.39999999851, 14710.099999997765, 15877.199999999255, 16925.39999999851, 18869.699999999255, 19901.599999997765, 22389.199999999255, 23310.099999997765], 'hit': ['1', '1', '0', '0', '1', '0', '0', '0', '0', '0', '0', '0', '1', '0', '1', '0', '0', '1', '1'], 'b': []}","[['unknown', 'unknown', 'white', 'white', 'unknown', 'unknown'], ['unknown', 'unknown', 'black', 'black', 'unknown', 'unknown'], ['unknown', 'unknown', 'black', 'black', 'white', 'unknown'], ['unknown', 'black', 'white', 'white', 'black', 'white'], ['unknown', 'black', 'white', 'white', 'black', 'unknown'], ['white', 'black', 'white', 'white', 'black', 'white']]",19,0,14,,3,
,instructions,14,320392,0.0-4.0-4.0-1.3,68514e6ca359134eff9c664a,6840f58e49c87231ca790212,6851754154c8c97183544ef3,68,1,TRUE,1,TRUE,Player 68,67,"[{""""page_index"""":0,""""viewing_time"""":1419.6000000014901}]",1420,"","",,"","","","","",,,,,,
,instructions,15,323536,0.0-4.0-5.0,68514e6ca359134eff9c664a,6840f58e49c87231ca790212,6851754154c8c97183544ef3,68,1,TRUE,1,TRUE,Player 68,67,"[{""""page_index"""":0,""""viewing_time"""":3142.300000000745}]",3142.69999999926,"","",,"","","","","",,,,,,
,instructions,16,402255,0.0-4.0-6.0-0.0,68514e6ca359134eff9c664a,6840f58e49c87231ca790212,6851754154c8c97183544ef3,68,1,TRUE,1,TRUE,Player 68,67,"[{""""page_index"""":0,""""viewing_time"""":6950.800000000745},{""""page_index"""":1,""""viewing_time"""":9903.699999999255},{""""page_index"""":2,""""viewing_time"""":3648.099999997765},{""""page_index"""":3,""""viewing_time"""":58215.60000000149}]",78718.5999999978,"","",,"","","","","",,,,,,
,survey-multi-choice,17,418752,0.0-4.0-6.0-1.0,68514e6ca359134eff9c664a,6840f58e49c87231ca790212,6851754154c8c97183544ef3,68,1,TRUE,1,TRUE,Player 68,67,"",16494.3000000007,"{""""Q0"""":""""... <b>repeat</b> my clicks from the first round, in the same order""""}",[0],1,multichoice_reconstruction,"","","","",,,,,,
,survey-html-form,18,432912,0.0-4.0-7.0,68514e6ca359134eff9c664a,6840f58e49c87231ca790212,6851754154c8c97183544ef3,68,1,TRUE,1,TRUE,Player 68,67,"",14157.5,"{""""white_count"""":""""3""""}","",,white_card_report,"","","","",,,,,,3
,instructions,19,455119,0.0-4.0-8.0,68514e6ca359134eff9c664a,6840f58e49c87231ca790212,6851754154c8c97183544ef3,68,1,TRUE,1,TRUE,Player 68,67,"[{""""page_index"""":0,""""viewing_time"""":22205.5}]",22205.8999999985,"","",,"","","","","",,,,,,
,findSquares,20,479293,0.0-4.0-9.0,68514e6ca359134eff9c664a,6840f58e49c87231ca790212,6851754154c8c97183544ef3,68,1,TRUE,1,TRUE,Player 68,67,"",,"","",,memory,"[['0', '0', '0', '0', '0', '0'], ['0', '0', '0', '0', '0', '0'], ['0', '0', '1', '1', '0', '0'], ['0', '0', '1', '1', '0', '0'], ['1', '1', '0', '0', '1', '1'], ['1', '0', '0', '0', '0', '1']]","[[2, 2], [4, 1], [4, 5]]","{'i': [2, 5, 5, 3, 4, 1, 1, 1, 2, 2, 4, 5, 4, 3, 3], 'j': [3, 5, 1, 1, 2, 2, 4, 3, 4, 1, 0, 0, 4, 3, 2], 't': [5370.39999999851, 7562.39999999851, 8723.699999999255, 9962.300000000745, 11058.599999997765, 12090.300000000745, 12754.300000000745, 13458.199999999255, 14674.199999999255, 15578.300000000745, 16818.5, 18082.099999997765, 19130.199999999255, 21276.699999999255, 22154.699999999255], 'hit': ['1', '1', '0', '0', '0', '0', '0', '0', '0', '0', '1', '1', '1', '1', '1'], 'b': []}","[['unknown', 'unknown', 'unknown', 'unknown', 'unknown', 'unknown'], ['unknown', 'unknown', 'white', 'white', 'white', 'unknown'], ['unknown', 'white', 'black', 'black', 'white', 'unknown'], ['unknown', 'white', 'black', 'black', 'unknown', 'unknown'], ['black', 'black', 'white', 'unknown', 'black', 'black'], ['black', 'white', 'unknown', 'unknown', 'unknown', 'black']]",15,0,18,,2,
,survey-text,21,488343,0.0-4.0-10.0,68514e6ca359134eff9c664a,6840f58e49c87231ca790212,6851754154c8c97183544ef3,68,1,TRUE,1,TRUE,Player 68,67,"",8987.29999999702,"{""""worker_comments"""":""""""""}","",,"","","","","",,,,,,
,instructions,22,505086,0.0-4.0-11.0,68514e6ca359134eff9c664a,6840f58e49c87231ca790212,6851754154c8c97183544ef3,68,1,TRUE,1,TRUE,Player 68,67,"[{""""page_index"""":0,""""viewing_time"""":16741.60000000149}]",16742.200000003,"","",,"","","","","",,,,,,
1,fullscreen,0,5800,0.0-0.0,68514e6ca359134eff9c664a,683e69241b29601544b0fe95,685175222a7c98a65a3e6ac1,69,2,FALSE,2,TRUE,Player 69,51,"",,"","",,"","","","","",,,,,,
,instructions,1,151532,0.0-1.0,68514e6ca359134eff9c664a,683e69241b29601544b0fe95,685175222a7c98a65a3e6ac1,69,2,FALSE,2,TRUE,Player 69,51,"[{""""page_index"""":0,""""viewing_time"""":70342.10000000056},{""""page_index"""":1,""""viewing_time"""":36045.200000000186},{""""page_index"""":2,""""viewing_time"""":23649.599999999627},{""""page_index"""":3,""""viewing_time"""":9273.599999999627},{""""page_index"""":4,""""viewing_time"""":6410.100000000559}]",145721.600000001,"","",,"","","","","",,,,,,
,survey-multi-choice,2,222865,0.0-2.0,68514e6ca359134eff9c664a,683e69241b29601544b0fe95,685175222a7c98a65a3e6ac1,69,2,FALSE,2,TRUE,Player 69,51,"",71327.9000000004,"{""""Q0"""":""""... only click on cards in the corners""""}",[0],0,multichoice_part1,"","","","",,,,,,
,instructions,3,247043,0.0-3.0-0.0,68514e6ca359134eff9c664a,683e69241b29601544b0fe95,685175222a7c98a65a3e6ac1,69,2,FALSE,2,TRUE,Player 69,51,"[{""""page_index"""":0,""""viewing_time"""":24175.799999999814}]",24176.3999999994,"","",,"","","","","",,,,,,
,survey-multi-choice,4,261881,0.0-3.0-1.0,68514e6ca359134eff9c664a,683e69241b29601544b0fe95,685175222a7c98a65a3e6ac1,69,2,FALSE,2,TRUE,Player 69,51,"",14834.1000000006,"{""""Q0"""":""""... find all black cards whilst revealing as <b>few white<b> cards as possible""""}",[0],1,multichoice_part1,"","","","",,,,,,
,instructions,5,270436,0.0-4.0-0.0,68514e6ca359134eff9c664a,683e69241b29601544b0fe95,685175222a7c98a65a3e6ac1,69,2,FALSE,2,TRUE,Player 69,51,"[{""""page_index"""":0,""""viewing_time"""":8553.700000000186}]",8554.29999999981,"","",,"","","","","",,,,,,
,findSquares,6,318809,0.0-4.0-1.0,68514e6ca359134eff9c664a,683e69241b29601544b0fe95,685175222a7c98a65a3e6ac1,69,2,FALSE,2,TRUE,Player 69,51,"",,"","",,"","[['0', '0', '0', '0'], ['1', '1', '1', '1'], ['1', '1', '1', '1'], ['0', '0', '0', '0']]","[[2, 3]]","{'i': [3, 1, 2, 1, 0, 0, 3, 3, 3, 1, 1, 2, 2], 'j': [3, 2, 1, 0, 1, 3, 0, 1, 2, 1, 3, 2, 0], 't': [12452.599999999627, 14663.700000000186, 17270.400000000373, 23783, 28478.599999999627, 29969.5, 31672.799999999814, 32724.5, 34666.90000000037, 37750.5, 41429.200000000186, 45058.09999999963, 46342.5], 'hit': ['0', '1', '1', '1', '0', '0', '0', '0', '0', '1', '1', '1', '1'], 'b': []}","[['unknown', 'white', 'unknown', 'white'], ['black', 'black', 'black', 'black'], ['black', 'black', 'black', 'black'], ['white', 'white', 'white', 'white']]",13,0,2,,,
,instructions,7,329801,0.0-4.0-2.0,68514e6ca359134eff9c664a,683e69241b29601544b0fe95,685175222a7c98a65a3e6ac1,69,2,FALSE,2,TRUE,Player 69,51,"[{""""page_index"""":0,""""viewing_time"""":10989}]",10989.7999999998,"","",,"","","","","",,,,,,
,instructions,8,361620,0.0-4.0-3.0,68514e6ca359134eff9c664a,683e69241b29601544b0fe95,685175222a7c98a65a3e6ac1,69,2,FALSE,2,TRUE,Player 69,51,"[{""""page_index"""":0,""""viewing_time"""":29789.099999999627},{""""page_index"""":1,""""viewing_time"""":2027.4000000003725}]",31817.0999999996,"","",,"","","","","",,,,,,
,findSquares,9,407326,0.0-4.0-4.0-0.0,68514e6ca359134eff9c664a,683e69241b29601544b0fe95,685175222a7c98a65a3e6ac1,69,2,FALSE,2,TRUE,Player 69,51,"",,"","",,non-pretend,"[['1', '1', '0', '0', '1', '1'], ['0', '0', '0', '0', '0', '0'], ['0', '0', '0', '0', '0', '0'], ['1', '0', '0', '0', '0', '1'], ['1', '1', '0', '0', '1', '1'], ['0', '0', '0', '0', '0', '0']]","[[0, 1], [0, 5], [4, 0], [4, 4]]","{'i': [1, 3, 1, 3, 2, 3, 4, 4, 4, 1, 1, 0, 0, 3, 5, 5, 5, 2, 2, 0, 1, 0, 2, 4, 5, 5, 3], 'j': [2, 3, 5, 0, 0, 1, 1, 3, 2, 1, 4, 4, 3, 4, 4, 1, 0, 2, 3, 0, 0, 2, 5, 5, 3, 5, 5], 't': [2259.2999999998137, 4050.5999999996275, 6099.899999999441, 9605.299999999814, 10784.699999999255, 11913.299999999814, 12781, 14908.099999999627, 15844.899999999441, 18002.199999999255, 19700.199999999255, 20693.099999999627, 21802.5, 23462.099999999627, 24941.299999999814, 26221.5, 27321.599999999627, 28465.5, 29322.39999999944, 30692.599999999627, 31952.5, 33283.39999999944, 34371.699999999255, 35322.799999999814, 38254.09999999963, 39341.59999999963, 43684.699999999255], 'hit': ['0', '0', '0', '1', '0', '0', '1', '0', '0', '0', '0', '1', '0', '0', '0', '0', '0', '0', '0', '1', '0', '0', '0', '1', '0', '0', '1'], 'b': []}","[['black', 'black', 'white', 'white', 'black', 'black'], ['white', 'white', 'white', 'unknown', 'white', 'white'], ['white', 'unknown', 'white', 'white', 'unknown', 'white'], ['black', 'white', 'unknown', 'white', 'white', 'black'], ['black', 'black', 'white', 'white', 'black', 'black'], ['white', 'white', 'unknown', 'white', 'white', 'white']]",27,0,5,,4,
,instructions,10,413122,0.0-4.0-4.0-1.0,68514e6ca359134eff9c664a,683e69241b29601544b0fe95,685175222a7c98a65a3e6ac1,69,2,FALSE,2,TRUE,Player 69,51,"[{""""page_index"""":0,""""viewing_time"""":5793.0999999996275}]",5793.89999999944,"","",,"","","","","",,,,,,
,findSquares,11,444244,0.0-4.0-4.0-0.1,68514e6ca359134eff9c664a,683e69241b29601544b0fe95,685175222a7c98a65a3e6ac1,69,2,FALSE,2,TRUE,Player 69,51,"",,"","",,non-pretend,"[['0', '0', '0', '0', '0', '0'], ['1', '1', '0', '0', '1', '1'], ['0', '0', '0', '0', '0', '0'], ['1', '0', '0', '0', '0', '1'], ['1', '1', '0', '0', '1', '1'], ['0', '0', '0', '0', '0', '0']]","[[1, 1], [1, 5], [3, 5], [4, 0]]","{'i': [2, 0, 2, 3, 3, 2, 0, 1, 2, 1, 1, 1, 0, 2, 3, 5, 4, 3, 4, 4], 'j': [1, 1, 5, 4, 3, 3, 5, 4, 4, 3, 2, 0, 0, 0, 0, 0, 1, 1, 5, 4], 't': [3637.7999999998137, 4897.700000000186, 6247.700000000186, 8345, 9171.599999999627, 10018, 11398.700000000186, 12698.700000000186, 14170.200000000186, 15139.200000000186, 16467.799999999814, 17738.400000000373, 18898.200000000186, 19899.700000000186, 21460.299999999814, 23241.5, 24380.900000000373, 25281.5, 27098.400000000373, 29100.900000000373], 'hit': ['0', '0', '0', '0', '0', '0', '0', '1', '0', '0', '0', '1', '0', '0', '1', '0', '1', '0', '1', '1'], 'b': []}","[['white', 'white', 'unknown', 'unknown', 'unknown', 'white'], ['black', 'black', 'white', 'white', 'black', 'black'], ['white', 'white', 'unknown', 'white', 'white', 'white'], ['black', 'white', 'unknown', 'white', 'white', 'black'], ['black', 'black', 'unknown', 'unknown', 'black', 'black'], ['white', 'unknown', 'unknown', 'unknown', 'unknown', 'unknown']]",20,0,12,,1,
,instructions,12,446533,0.0-4.0-4.0-1.1,68514e6ca359134eff9c664a,683e69241b29601544b0fe95,685175222a7c98a65a3e6ac1,69,2,FALSE,2,TRUE,Player 69,51,"[{""""page_index"""":0,""""viewing_time"""":2286.7000000001863}]",2287.40000000037,"","",,"","","","","",,,,,,
,findSquares,13,472721,0.0-4.0-4.0-0.2,68514e6ca359134eff9c664a,683e69241b29601544b0fe95,685175222a7c98a65a3e6ac1,69,2,FALSE,2,TRUE,Player 69,51,"",,"","",,non-pretend,"[['0', '0', '0', '0', '0', '0'], ['0', '0', '1', '1', '0', '0'], ['0', '0', '1', '1', '0', '0'], ['0', '1', '0', '0', '1', '0'], ['0', '1', '0', '0', '1', '0'], ['0', '1', '0', '0', '1', '0']]","[[1, 2], [4, 4], [5, 1]]","{'i': [4, 2, 4, 3, 2, 4, 3, 2, 5, 5, 5, 4, 1, 1, 3, 3, 2], 'j': [5, 2, 1, 1, 1, 3, 4, 4, 4, 3, 2, 2, 1, 3, 2, 3, 3], 't': [1744.5, 3366, 5865.4000000003725, 7306.5, 8687.200000000186, 10552.700000000186, 12315.300000000745, 13746.800000000745, 15107.200000000186, 16417.10000000056, 17435.10000000056, 18393.200000000186, 19925.200000000186, 21104.5, 22293.300000000745, 23412.200000000186, 24167.400000000373], 'hit': ['0', '1', '1', '1', '0', '0', '1', '0', '1', '0', '0', '0', '0', '1', '0', '0', '1'], 'b': []}","[['unknown', 'unknown', 'unknown', 'unknown', 'unknown', 'unknown'], ['unknown', 'white', 'black', 'black', 'unknown', 'unknown'], ['unknown', 'white', 'black', 'black', 'white', 'unknown'], ['unknown', 'black', 'white', 'white', 'black', 'unknown'], ['unknown', 'black', 'white', 'white', 'black', 'white'], ['unknown', 'black', 'white', 'white', 'black', 'unknown']]",17,0,16,,3,
,instructions,14,475075,0.0-4.0-4.0-1.2,68514e6ca359134eff9c664a,683e69241b29601544b0fe95,685175222a7c98a65a3e6ac1,69,2,FALSE,2,TRUE,Player 69,51,"[{""""page_index"""":0,""""viewing_time"""":2352.5}]",2353.20000000019,"","",,"","","","","",,,,,,
,findSquares,15,501700,0.0-4.0-4.0-0.3,68514e6ca359134eff9c664a,683e69241b29601544b0fe95,685175222a7c98a65a3e6ac1,69,2,FALSE,2,TRUE,Player 69,51,"",,"","",,non-pretend,"[['0', '0', '0', '0', '0', '0'], ['0', '0', '0', '0', '0', '0'], ['0', '0', '1', '1', '0', '0'], ['0', '0', '1', '1', '0', '0'], ['1', '1', '0', '0', '1', '1'], ['1', '0', '0', '0', '0', '1']]","[[2, 2], [4, 1], [4, 5]]","{'i': [3, 4, 4, 3, 1, 3, 5, 4, 5, 5, 5, 3, 4, 2, 3], 'j': [5, 4, 2, 1, 2, 2, 1, 0, 0, 4, 5, 4, 3, 3, 3], 't': [2172.4000000003725, 3048.800000000745, 5075, 6072.800000000745, 7406.4000000003725, 10457.5, 14006.300000000745, 15126, 16069.600000000559, 18388, 19246.800000000745, 20312.900000000373, 21626.800000000745, 22946.60000000056, 24615.900000000373], 'hit': ['0', '1', '0', '0', '0', '1', '0', '1', '1', '0', '1', '0', '0', '1', '1'], 'b': []}","[['unknown', 'unknown', 'unknown', 'unknown', 'unknown', 'unknown'], ['unknown', 'unknown', 'white', 'unknown', 'unknown', 'unknown'], ['unknown', 'unknown', 'black', 'black', 'unknown', 'unknown'], ['unknown', 'white', 'black', 'black', 'white', 'white'], ['black', 'black', 'white', 'white', 'black', 'black'], ['black', 'white', 'unknown', 'unknown', 'white', 'black']]",15,0,18,,2,
,instructions,16,505570,0.0-4.0-4.0-1.3,68514e6ca359134eff9c664a,683e69241b29601544b0fe95,685175222a7c98a65a3e6ac1,69,2,FALSE,2,TRUE,Player 69,51,"[{""""page_index"""":0,""""viewing_time"""":3869.5}]",3870,"","",,"","","","","",,,,,,
,instructions,17,508755,0.0-4.0-5.0,68514e6ca359134eff9c664a,683e69241b29601544b0fe95,685175222a7c98a65a3e6ac1,69,2,FALSE,2,TRUE,Player 69,51,"[{""""page_index"""":0,""""viewing_time"""":3183.699999999255}]",3184.29999999981,"","",,"","","","","",,,,,,
,instructions,18,559448,0.0-4.0-6.0-0.0,68514e6ca359134eff9c664a,683e69241b29601544b0fe95,685175222a7c98a65a3e6ac1,69,2,FALSE,2,TRUE,Player 69,51,"[{""""page_index"""":0,""""viewing_time"""":8865.599999999627},{""""page_index"""":1,""""viewing_time"""":25176.5},{""""page_index"""":2,""""viewing_time"""":3346.9000000003725},{""""page_index"""":3,""""viewing_time"""":13301.599999999627}]",50691,"","",,"","","","","",,,,,,
,survey-multi-choice,19,567404,0.0-4.0-6.0-1.0,68514e6ca359134eff9c664a,683e69241b29601544b0fe95,685175222a7c98a65a3e6ac1,69,2,FALSE,2,TRUE,Player 69,51,"",7952.59999999963,"{""""Q0"""":""""... find all black cards whilst revealing as <b>few white</b> cards as possible""""}",[0],0,multichoice_reconstruction,"","","","",,,,,,
,instructions,20,584191,0.0-4.0-6.1-0.1,68514e6ca359134eff9c664a,683e69241b29601544b0fe95,685175222a7c98a65a3e6ac1,69,2,FALSE,2,TRUE,Player 69,51,"[{""""page_index"""":0,""""viewing_time"""":1738.300000000745},{""""page_index"""":1,""""viewing_time"""":10379.799999999814},{""""page_index"""":2,""""viewing_time"""":3627.7999999998137},{""""page_index"""":3,""""viewing_time"""":1038.7000000001863}]",16785.2000000002,"","",,"","","","","",,,,,,
,survey-multi-choice,21,588787,0.0-4.0-6.1-1.1,68514e6ca359134eff9c664a,683e69241b29601544b0fe95,685175222a7c98a65a3e6ac1,69,2,FALSE,2,TRUE,Player 69,51,"",4593.80000000075,"{""""Q0"""":""""... find all black cards whilst revealing as <b>few white</b> cards as possible""""}",[0],0,multichoice_reconstruction,"","","","",,,,,,
,survey-html-form,22,612441,0.0-4.0-7.0,68514e6ca359134eff9c664a,683e69241b29601544b0fe95,685175222a7c98a65a3e6ac1,69,2,FALSE,2,TRUE,Player 69,51,"",23649.2999999998,"{""""white_count"""":""""6""""}","",,white_card_report,"","","","",,,,,,6
,instructions,23,660762,0.0-4.0-8.0,68514e6ca359134eff9c664a,683e69241b29601544b0fe95,685175222a7c98a65a3e6ac1,69,2,FALSE,2,TRUE,Player 69,51,"[{""""page_index"""":0,""""viewing_time"""":48319.09999999963}]",48319.5999999996,"","",,"","","","","",,,,,,
,findSquares,24,682232,0.0-4.0-9.0,68514e6ca359134eff9c664a,683e69241b29601544b0fe95,685175222a7c98a65a3e6ac1,69,2,FALSE,2,TRUE,Player 69,51,"",,"","",,memory,"[['1', '1', '0', '0', '1', '1'], ['0', '0', '0', '0', '0', '0'], ['0', '0', '0', '0', '0', '0'], ['1', '0', '0', '0', '0', '1'], ['1', '1', '0', '0', '1', '1'], ['0', '0', '0', '0', '0', '0']]","[[0, 1], [0, 5], [4, 0], [4, 4]]","{'i': [0, 0, 3, 4, 4, 3], 'j': [4, 0, 0, 1, 5, 5], 't': [9580.600000000559, 11656.200000000186, 14478, 15677.5, 18227.900000000373, 19456.900000000373], 'hit': ['1', '1', '1', '1', '1', '1'], 'b': []}","[['black', 'black', 'unknown', 'unknown', 'black', 'black'], ['unknown', 'unknown', 'unknown', 'unknown', 'unknown', 'unknown'], ['unknown', 'unknown', 'unknown', 'unknown', 'unknown', 'unknown'], ['black', 'unknown', 'unknown', 'unknown', 'unknown', 'black'], ['black', 'black', 'unknown', 'unknown', 'black', 'black'], ['unknown', 'unknown', 'unknown', 'unknown', 'unknown', 'unknown']]",6,0,26,,4,
,survey-text,25,723180,0.0-4.0-10.0,68514e6ca359134eff9c664a,683e69241b29601544b0fe95,685175222a7c98a65a3e6ac1,69,2,FALSE,2,TRUE,Player 69,51,"",40941.5999999996,"{""""worker_comments"""":""""it was really fun""""}","",,"","","","","",,,,,,
,instructions,26,744578,0.0-4.0-11.0,68514e6ca359134eff9c664a,683e69241b29601544b0fe95,685175222a7c98a65a3e6ac1,69,2,FALSE,2,TRUE,Player 69,51,"[{""""page_index"""":0,""""viewing_time"""":21396.200000000186}]",21396.7000000002,"","",,"","","","","",,,,,,
1,fullscreen,0,4443,0.0-0.0,68514e6ca359134eff9c664a,683c7265450f88ec6e49682e,68517518bda4e332ae73b723,70,1,TRUE,2,TRUE,Player 70,75,"",,"","",,"","","","","",,,,,,
,instructions,1,138253,0.0-1.0,68514e6ca359134eff9c664a,683c7265450f88ec6e49682e,68517518bda4e332ae73b723,70,1,TRUE,2,TRUE,Player 70,75,"[{""""page_index"""":0,""""viewing_time"""":45851.59999999963},{""""page_index"""":1,""""viewing_time"""":13484.900000000373},{""""page_index"""":2,""""viewing_time"""":46598.39999999991},{""""page_index"""":3,""""viewing_time"""":8536.69999999972},{""""page_index"""":4,""""viewing_time"""":19334}]",133807.3,"","",,"","","","","",,,,,,
,survey-multi-choice,2,207248,0.0-2.0,68514e6ca359134eff9c664a,683c7265450f88ec6e49682e,68517518bda4e332ae73b723,70,1,TRUE,2,TRUE,Player 70,75,"",68990.5999999996,"{""""Q0"""":""""... <b>avoid</b> all the black cards""""}",[0],0,multichoice_part1,"","","","",,,,,,
,instructions,3,224394,0.0-3.0-0.0,68514e6ca359134eff9c664a,683c7265450f88ec6e49682e,68517518bda4e332ae73b723,70,1,TRUE,2,TRUE,Player 70,75,"[{""""page_index"""":0,""""viewing_time"""":17144.100000000093}]",17144.8000000003,"","",,"","","","","",,,,,,
,survey-multi-choice,4,231872,0.0-3.0-1.0,68514e6ca359134eff9c664a,683c7265450f88ec6e49682e,68517518bda4e332ae73b723,70,1,TRUE,2,TRUE,Player 70,75,"",7475.30000000028,"{""""Q0"""":""""... find all black cards whilst revealing as <b>few white<b> cards as possible""""}",[0],1,multichoice_part1,"","","","",,,,,,
,instructions,5,244396,0.0-4.0-0.0,68514e6ca359134eff9c664a,683c7265450f88ec6e49682e,68517518bda4e332ae73b723,70,1,TRUE,2,TRUE,Player 70,75,"[{""""page_index"""":0,""""viewing_time"""":12522}]",12522.6000000001,"","",,"","","","","",,,,,,
,findSquares,6,277354,0.0-4.0-1.0,68514e6ca359134eff9c664a,683c7265450f88ec6e49682e,68517518bda4e332ae73b723,70,1,TRUE,2,TRUE,Player 70,75,"",,"","",,"","[['0', '0', '0', '0'], ['1', '1', '1', '1'], ['1', '1', '1', '1'], ['0', '0', '0', '0']]","[[2, 3]]","{'i': [1, 3, 2, 1, 1, 2, 2, 1], 'j': [3, 3, 2, 2, 1, 1, 0, 0], 't': [13951, 20044.80000000028, 22514.900000000373, 24675.600000000093, 26339.700000000186, 27889.5, 29526.30000000028, 30937.100000000093], 'hit': ['1', '0', '1', '1', '1', '1', '1', '1'], 'b': []}","[['unknown', 'unknown', 'unknown', 'unknown'], ['black', 'black', 'black', 'black'], ['black', 'black', 'black', 'black'], ['unknown', 'unknown', 'unknown', 'white']]",8,0,7,,,
,instructions,7,294255,0.0-4.0-2.0,68514e6ca359134eff9c664a,683c7265450f88ec6e49682e,68517518bda4e332ae73b723,70,1,TRUE,2,TRUE,Player 70,75,"[{""""page_index"""":0,""""viewing_time"""":16898.200000000186}]",16899.3999999999,"","",,"","","","","",,,,,,
,instructions,8,353852,0.0-4.0-3.0,68514e6ca359134eff9c664a,683c7265450f88ec6e49682e,68517518bda4e332ae73b723,70,1,TRUE,2,TRUE,Player 70,75,"[{""""page_index"""":0,""""viewing_time"""":54654.10000000009},{""""page_index"""":1,""""viewing_time"""":4940.300000000279}]",59595.6000000001,"","",,"","","","","",,,,,,
,findSquares,9,384726,0.0-4.0-4.0-0.0,68514e6ca359134eff9c664a,683c7265450f88ec6e49682e,68517518bda4e332ae73b723,70,1,TRUE,2,TRUE,Player 70,75,"",,"","",,non-pretend,"[['0', '0', '0', '0', '0', '0'], ['0', '0', '0', '0', '0', '0'], ['0', '0', '1', '1', '0', '0'], ['0', '0', '1', '1', '0', '0'], ['1', '1', '0', '0', '1', '1'], ['1', '0', '0', '0', '0', '1']]","[[2, 2], [4, 1], [4, 5]]","{'i': [2, 3, 4, 4, 3, 1, 2, 4, 3, 4, 5, 3, 3, 5, 5], 'j': [1, 2, 0, 4, 4, 2, 3, 2, 3, 3, 1, 1, 0, 0, 5], 't': [2396, 3760.899999999907, 5862.100000000093, 8822.69999999972, 10406.100000000093, 12871.5, 14018.399999999907, 16350.5, 17817.299999999814, 19305.299999999814, 21431, 23548.5, 24876.600000000093, 26149.69999999972, 28857.600000000093], 'hit': ['0', '1', '1', '1', '0', '0', '1', '0', '1', '0', '0', '0', '0', '1', '1'], 'b': []}","[['unknown', 'unknown', 'unknown', 'unknown', 'unknown', 'unknown'], ['unknown', 'unknown', 'white', 'unknown', 'unknown', 'unknown'], ['unknown', 'white', 'black', 'black', 'unknown', 'unknown'], ['white', 'white', 'black', 'black', 'white', 'unknown'], ['black', 'black', 'white', 'white', 'black', 'black'], ['black', 'white', 'unknown', 'unknown', 'unknown', 'black']]",15,0,18,,2,
,instructions,10,387708,0.0-4.0-4.0-1.0,68514e6ca359134eff9c664a,683c7265450f88ec6e49682e,68517518bda4e332ae73b723,70,1,TRUE,2,TRUE,Player 70,75,"[{""""page_index"""":0,""""viewing_time"""":2979.0999999996275}]",2980.59999999963,"","",,"","","","","",,,,,,
,findSquares,11,413850,0.0-4.0-4.0-0.1,68514e6ca359134eff9c664a,683c7265450f88ec6e49682e,68517518bda4e332ae73b723,70,1,TRUE,2,TRUE,Player 70,75,"",,"","",,non-pretend,"[['0', '0', '0', '0', '0', '0'], ['1', '1', '0', '0', '1', '1'], ['0', '0', '0', '0', '0', '0'], ['1', '0', '0', '0', '0', '1'], ['1', '1', '0', '0', '1', '1'], ['0', '0', '0', '0', '0', '0']]","[[1, 1], [1, 5], [3, 5], [4, 0]]","{'i': [2, 3, 4, 2, 0, 1, 1, 0, 0, 1, 4, 5, 5, 3, 4], 'j': [4, 4, 5, 5, 5, 4, 3, 3, 1, 0, 1, 1, 0, 0, 4], 't': [3566.7000000001863, 4695.600000000093, 5746.200000000186, 6812.300000000279, 7919.399999999907, 9473.80000000028, 10828.30000000028, 11816.600000000093, 13201.30000000028, 14249.100000000093, 16174.600000000093, 18906.100000000093, 20161, 21677.899999999907, 24129.700000000186], 'hit': ['0', '0', '1', '0', '0', '1', '0', '0', '0', '1', '1', '0', '0', '1', '1'], 'b': []}","[['unknown', 'white', 'unknown', 'white', 'unknown', 'white'], ['black', 'black', 'unknown', 'white', 'black', 'black'], ['unknown', 'unknown', 'unknown', 'unknown', 'white', 'white'], ['black', 'unknown', 'unknown', 'unknown', 'white', 'black'], ['black', 'black', 'unknown', 'unknown', 'black', 'black'], ['white', 'white', 'unknown', 'unknown', 'unknown', 'unknown']]",15,0,17,,1,
,instructions,12,416610,0.0-4.0-4.0-1.1,68514e6ca359134eff9c664a,683c7265450f88ec6e49682e,68517518bda4e332ae73b723,70,1,TRUE,2,TRUE,Player 70,75,"[{""""page_index"""":0,""""viewing_time"""":2758.899999999907}]",2759.5,"","",,"","","","","",,,,,,
,findSquares,13,437835,0.0-4.0-4.0-0.2,68514e6ca359134eff9c664a,683c7265450f88ec6e49682e,68517518bda4e332ae73b723,70,1,TRUE,2,TRUE,Player 70,75,"",,"","",,non-pretend,"[['1', '1', '0', '0', '1', '1'], ['0', '0', '0', '0', '0', '0'], ['0', '0', '0', '0', '0', '0'], ['1', '0', '0', '0', '0', '1'], ['1', '1', '0', '0', '1', '1'], ['0', '0', '0', '0', '0', '0']]","[[0, 1], [0, 5], [4, 0], [4, 4]]","{'i': [3, 3, 4, 3, 4, 4, 3, 0, 0, 0], 'j': [0, 1, 1, 4, 3, 5, 5, 2, 0, 4], 't': [3470.2000000001863, 4987.9000000003725, 7859.200000000186, 9551.80000000028, 11917.80000000028, 13443.600000000093, 14348.5, 16247.200000000186, 17433.600000000093, 19220.600000000093], 'hit': ['1', '0', '1', '0', '0', '1', '1', '0', '1', '1'], 'b': []}","[['black', 'black', 'white', 'unknown', 'black', 'black'], ['unknown', 'unknown', 'unknown', 'unknown', 'unknown', 'unknown'], ['unknown', 'unknown', 'unknown', 'unknown', 'unknown', 'unknown'], ['black', 'white', 'unknown', 'unknown', 'white', 'black'], ['black', 'black', 'unknown', 'white', 'black', 'black'], ['unknown', 'unknown', 'unknown', 'unknown', 'unknown', 'unknown']]",10,0,22,,4,
,instructions,14,439960,0.0-4.0-4.0-1.2,68514e6ca359134eff9c664a,683c7265450f88ec6e49682e,68517518bda4e332ae73b723,70,1,TRUE,2,TRUE,Player 70,75,"[{""""page_index"""":0,""""viewing_time"""":2122.9000000003725}]",2123.80000000028,"","",,"","","","","",,,,,,
,findSquares,15,476189,0.0-4.0-4.0-0.3,68514e6ca359134eff9c664a,683c7265450f88ec6e49682e,68517518bda4e332ae73b723,70,1,TRUE,2,TRUE,Player 70,75,"",,"","",,non-pretend,"[['0', '0', '0', '0', '0', '0'], ['0', '0', '1', '1', '0', '0'], ['0', '0', '1', '1', '0', '0'], ['0', '1', '0', '0', '1', '0'], ['0', '1', '0', '0', '1', '0'], ['0', '1', '0', '0', '1', '0']]","[[1, 2], [4, 4], [5, 1]]","{'i': [4, 4, 4, 5, 3, 1, 1, 1, 2, 3, 5, 3, 3, 5, 2], 'j': [1, 2, 0, 2, 1, 3, 4, 1, 2, 4, 4, 3, 5, 3, 3], 't': [3043.3000000002794, 5808.399999999907, 8177.399999999907, 9713.80000000028, 11334.200000000186, 14436.200000000186, 17590.5, 18935.700000000186, 20675.700000000186, 25030.100000000093, 26761.399999999907, 29102.80000000028, 30677.5, 32329.399999999907, 34218], 'hit': ['1', '0', '0', '0', '1', '1', '0', '0', '1', '1', '1', '0', '0', '0', '1'], 'b': []}","[['unknown', 'unknown', 'unknown', 'unknown', 'unknown', 'unknown'], ['unknown', 'white', 'black', 'black', 'white', 'unknown'], ['unknown', 'unknown', 'black', 'black', 'unknown', 'unknown'], ['unknown', 'black', 'unknown', 'white', 'black', 'white'], ['white', 'black', 'white', 'unknown', 'black', 'unknown'], ['unknown', 'black', 'white', 'white', 'black', 'unknown']]",15,0,18,,3,
,instructions,16,479235,0.0-4.0-4.0-1.3,68514e6ca359134eff9c664a,683c7265450f88ec6e49682e,68517518bda4e332ae73b723,70,1,TRUE,2,TRUE,Player 70,75,"[{""""page_index"""":0,""""viewing_time"""":3044.600000000093}]",3045.60000000009,"","",,"","","","","",,,,,,
,instructions,17,481644,0.0-4.0-5.0,68514e6ca359134eff9c664a,683c7265450f88ec6e49682e,68517518bda4e332ae73b723,70,1,TRUE,2,TRUE,Player 70,75,"[{""""page_index"""":0,""""viewing_time"""":2407.2000000001863}]",2407.80000000028,"","",,"","","","","",,,,,,
,instructions,18,533068,0.0-4.0-6.0-0.0,68514e6ca359134eff9c664a,683c7265450f88ec6e49682e,68517518bda4e332ae73b723,70,1,TRUE,2,TRUE,Player 70,75,"[{""""page_index"""":0,""""viewing_time"""":11048.100000000093},{""""page_index"""":1,""""viewing_time"""":19721.30000000028},{""""page_index"""":2,""""viewing_time"""":3511},{""""page_index"""":3,""""viewing_time"""":17140.799999999814}]",51422.3000000003,"","",,"","","","","",,,,,,
,survey-multi-choice,19,540311,0.0-4.0-6.0-1.0,68514e6ca359134eff9c664a,683c7265450f88ec6e49682e,68517518bda4e332ae73b723,70,1,TRUE,2,TRUE,Player 70,75,"",7239.70000000019,"{""""Q0"""":""""... <b>repeat</b> my clicks from the first round, in the same order""""}",[0],1,multichoice_reconstruction,"","","","",,,,,,
,survey-html-form,20,553601,0.0-4.0-7.0,68514e6ca359134eff9c664a,683c7265450f88ec6e49682e,68517518bda4e332ae73b723,70,1,TRUE,2,TRUE,Player 70,75,"",13285.7000000002,"{""""white_count"""":""""6""""}","",,white_card_report,"","","","",,,,,,6
,instructions,21,574224,0.0-4.0-8.0,68514e6ca359134eff9c664a,683c7265450f88ec6e49682e,68517518bda4e332ae73b723,70,1,TRUE,2,TRUE,Player 70,75,"[{""""page_index"""":0,""""viewing_time"""":20621.200000000186}]",20622.2999999998,"","",,"","","","","",,,,,,
,findSquares,22,608360,0.0-4.0-9.0,68514e6ca359134eff9c664a,683c7265450f88ec6e49682e,68517518bda4e332ae73b723,70,1,TRUE,2,TRUE,Player 70,75,"",,"","",,memory,"[['0', '0', '0', '0', '0', '0'], ['0', '0', '0', '0', '0', '0'], ['0', '0', '1', '1', '0', '0'], ['0', '0', '1', '1', '0', '0'], ['1', '1', '0', '0', '1', '1'], ['1', '0', '0', '0', '0', '1']]","[[2, 2], [4, 1], [4, 5]]","{'i': [4, 3, 3, 2, 2, 1, 3, 4, 5, 4, 3, 4, 5, 3, 5, 5], 'j': [4, 4, 5, 3, 1, 2, 1, 0, 1, 2, 2, 3, 4, 3, 0, 5], 't': [5088.600000000093, 7041.699999999721, 8442.899999999907, 10835.100000000093, 12040.100000000093, 13483.69999999972, 15371.100000000093, 17903.899999999907, 19072.600000000093, 20561.100000000093, 21755.5, 25982.399999999907, 27259.399999999907, 28954.5, 30739, 32119.399999999907], 'hit': ['1', '0', '0', '1', '0', '0', '0', '1', '0', '0', '1', '0', '0', '1', '1', '1'], 'b': []}","[['unknown', 'unknown', 'unknown', 'unknown', 'unknown', 'unknown'], ['unknown', 'unknown', 'white', 'unknown', 'unknown', 'unknown'], ['unknown', 'white', 'black', 'black', 'unknown', 'unknown'], ['unknown', 'white', 'black', 'black', 'white', 'white'], ['black', 'black', 'white', 'white', 'black', 'black'], ['black', 'white', 'unknown', 'unknown', 'white', 'black']]",16,0,17,,2,
,survey-text,23,622658,0.0-4.0-10.0,68514e6ca359134eff9c664a,683c7265450f88ec6e49682e,68517518bda4e332ae73b723,70,1,TRUE,2,TRUE,Player 70,75,"",14291.1000000001,"{""""worker_comments"""":""""""""}","",,"","","","","",,,,,,
,instructions,24,629349,0.0-4.0-11.0,68514e6ca359134eff9c664a,683c7265450f88ec6e49682e,68517518bda4e332ae73b723,70,1,TRUE,2,TRUE,Player 70,75,"[{""""page_index"""":0,""""viewing_time"""":6688.399999999907}]",6689.29999999981,"","",,"","","","","",,,,,,
1,fullscreen,0,5099,0.0-0.0,68514e6ca359134eff9c664a,647869e6f69318bacc341d53,68517594cb97bac0458a9785,71,1,TRUE,2,TRUE,Player 71,50,"",,"","",,"","","","","",,,,,,
,instructions,1,27341,0.0-1.0,68514e6ca359134eff9c664a,647869e6f69318bacc341d53,68517594cb97bac0458a9785,71,1,TRUE,2,TRUE,Player 71,50,"[{""""page_index"""":0,""""viewing_time"""":9768.699999988079},{""""page_index"""":1,""""viewing_time"""":3326.0999999940395},{""""page_index"""":2,""""viewing_time"""":3096.5},{""""page_index"""":3,""""viewing_time"""":1708.5},{""""page_index"""":4,""""viewing_time"""":4332.300000011921}]",22233.3999999762,"","",,"","","","","",,,,,,
,survey-multi-choice,2,35610,0.0-2.0,68514e6ca359134eff9c664a,647869e6f69318bacc341d53,68517594cb97bac0458a9785,71,1,TRUE,2,TRUE,Player 71,50,"",8265.09999999404,"{""""Q0"""":""""... only click on cards in the corners""""}",[0],0,multichoice_part1,"","","","",,,,,,
,instructions,3,40366,0.0-3.0-0.0,68514e6ca359134eff9c664a,647869e6f69318bacc341d53,68517594cb97bac0458a9785,71,1,TRUE,2,TRUE,Player 71,50,"[{""""page_index"""":0,""""viewing_time"""":4752.699999988079}]",4753.5,"","",,"","","","","",,,,,,
,survey-multi-choice,4,46229,0.0-3.0-1.0,68514e6ca359134eff9c664a,647869e6f69318bacc341d53,68517594cb97bac0458a9785,71,1,TRUE,2,TRUE,Player 71,50,"",5860.19999998808,"{""""Q0"""":""""... find all black cards whilst revealing as <b>few white<b> cards as possible""""}",[0],1,multichoice_part1,"","","","",,,,,,
,instructions,5,49099,0.0-4.0-0.0,68514e6ca359134eff9c664a,647869e6f69318bacc341d53,68517594cb97bac0458a9785,71,1,TRUE,2,TRUE,Player 71,50,"[{""""page_index"""":0,""""viewing_time"""":2868.5}]",2869,"","",,"","","","","",,,,,,
,findSquares,6,89547,0.0-4.0-1.0,68514e6ca359134eff9c664a,647869e6f69318bacc341d53,68517594cb97bac0458a9785,71,1,TRUE,2,TRUE,Player 71,50,"",,"","",,"","[['0', '0', '0', '0'], ['1', '1', '1', '1'], ['1', '1', '1', '1'], ['0', '0', '0', '0']]","[[2, 3]]","{'i': [2, 2, 1, 3, 1, 1, 1, 3, 2], 'j': [1, 0, 2, 2, 0, 1, 3, 0, 2], 't': [19366.20000001788, 20996.30000001192, 27102.5, 28435.30000001192, 31156, 34104.70000001788, 35394.80000001192, 37188.80000001192, 38419.80000001192], 'hit': ['1', '1', '1', '0', '1', '1', '1', '0', '1'], 'b': []}","[['unknown', 'unknown', 'unknown', 'unknown'], ['black', 'black', 'black', 'black'], ['black', 'black', 'black', 'black'], ['white', 'unknown', 'white', 'unknown']]",9,0,6,,,
,instructions,7,94915,0.0-4.0-2.0,68514e6ca359134eff9c664a,647869e6f69318bacc341d53,68517594cb97bac0458a9785,71,1,TRUE,2,TRUE,Player 71,50,"[{""""page_index"""":0,""""viewing_time"""":5366.4000000059605}]",5367.09999999404,"","",,"","","","","",,,,,,
,instructions,8,110921,0.0-4.0-3.0,68514e6ca359134eff9c664a,647869e6f69318bacc341d53,68517594cb97bac0458a9785,71,1,TRUE,2,TRUE,Player 71,50,"[{""""page_index"""":0,""""viewing_time"""":13085.199999988079},{""""page_index"""":1,""""viewing_time"""":2918.5999999940395}]",16004.5,"","",,"","","","","",,,,,,
,findSquares,9,240844,0.0-4.0-4.0-0.0,68514e6ca359134eff9c664a,647869e6f69318bacc341d53,68517594cb97bac0458a9785,71,1,TRUE,2,TRUE,Player 71,50,"",,"","",,non-pretend,"[['1', '1', '0', '0', '1', '1'], ['0', '0', '0', '0', '0', '0'], ['0', '0', '0', '0', '0', '0'], ['1', '0', '0', '0', '0', '1'], ['1', '1', '0', '0', '1', '1'], ['0', '0', '0', '0', '0', '0']]","[[0, 1], [0, 5], [4, 0], [4, 4]]","{'i': [3, 3, 5, 4, 4, 3, 2, 2, 5, 3, 3, 4, 5, 5, 5, 4, 2, 2, 2, 2, 3, 5, 1, 0, 0, 0, 1, 0], 'j': [0, 1, 0, 1, 2, 2, 0, 1, 1, 4, 5, 5, 5, 4, 3, 3, 4, 5, 3, 2, 3, 2, 3, 4, 3, 2, 2, 0], 't': [6675.0999999940395, 7544.199999988079, 8880.59999999404, 10020.199999988079, 11270.09999999404, 12604.09999999404, 14179, 15692.299999982119, 16866.40000000596, 18370.19999998808, 19264.09999999404, 20217.5, 21100.79999998212, 22017.69999998808, 23180.19999998808, 24175.79999998212, 25450.19999998808, 26452.5, 27597, 28537.29999998212, 29412.5, 30347.79999998212, 119982.69999998808, 121453.90000000596, 122627.19999998808, 123974.69999998808, 126209.59999999404, 127769.90000000596], 'hit': ['1', '0', '0', '1', '0', '0', '0', '0', '0', '0', '1', '1', '0', '0', '0', '0', '0', '0', '0', '0', '0', '0', '0', '1', '0', '0', '0', '1'], 'b': []}","[['black', 'black', 'white', 'white', 'black', 'black'], ['unknown', 'unknown', 'white', 'white', 'unknown', 'unknown'], ['white', 'white', 'white', 'white', 'white', 'white'], ['black', 'white', 'white', 'white', 'white', 'black'], ['black', 'black', 'white', 'white', 'black', 'black'], ['white', 'white', 'white', 'white', 'white', 'white']]",28,0,4,,4,
,instructions,10,248592,0.0-4.0-4.0-1.0,68514e6ca359134eff9c664a,647869e6f69318bacc341d53,68517594cb97bac0458a9785,71,1,TRUE,2,TRUE,Player 71,50,"[{""""page_index"""":0,""""viewing_time"""":7745}]",7746.90000000596,"","",,"","","","","",,,,,,
,findSquares,11,279101,0.0-4.0-4.0-0.1,68514e6ca359134eff9c664a,647869e6f69318bacc341d53,68517594cb97bac0458a9785,71,1,TRUE,2,TRUE,Player 71,50,"",,"","",,non-pretend,"[['0', '0', '0', '0', '0', '0'], ['0', '0', '0', '0', '0', '0'], ['0', '0', '1', '1', '0', '0'], ['0', '0', '1', '1', '0', '0'], ['1', '1', '0', '0', '1', '1'], ['1', '0', '0', '0', '0', '1']]","[[2, 2], [4, 1], [4, 5]]","{'i': [5, 3, 5, 4, 4, 1, 2, 3, 3, 2, 3, 4, 5], 'j': [2, 5, 5, 4, 3, 2, 3, 2, 3, 1, 1, 0, 0], 't': [5401.9000000059605, 7026.200000017881, 11131.100000023842, 12322.700000017881, 16155, 18006.90000000596, 19493.20000001788, 21331.40000000596, 22609, 24370, 25692.600000023842, 27211.100000023842, 28438.80000001192], 'hit': ['0', '0', '1', '1', '0', '0', '1', '1', '1', '0', '0', '1', '1'], 'b': []}","[['unknown', 'unknown', 'unknown', 'unknown', 'unknown', 'unknown'], ['unknown', 'unknown', 'white', 'unknown', 'unknown', 'unknown'], ['unknown', 'white', 'black', 'black', 'unknown', 'unknown'], ['unknown', 'white', 'black', 'black', 'unknown', 'white'], ['black', 'black', 'unknown', 'white', 'black', 'black'], ['black', 'unknown', 'white', 'unknown', 'unknown', 'black']]",13,0,20,,2,
,instructions,12,283748,0.0-4.0-4.0-1.1,68514e6ca359134eff9c664a,647869e6f69318bacc341d53,68517594cb97bac0458a9785,71,1,TRUE,2,TRUE,Player 71,50,"[{""""page_index"""":0,""""viewing_time"""":4643.9000000059605}]",4644.30000001192,"","",,"","","","","",,,,,,
,findSquares,13,319361,0.0-4.0-4.0-0.2,68514e6ca359134eff9c664a,647869e6f69318bacc341d53,68517594cb97bac0458a9785,71,1,TRUE,2,TRUE,Player 71,50,"",,"","",,non-pretend,"[['0', '0', '0', '0', '0', '0'], ['1', '1', '0', '0', '1', '1'], ['0', '0', '0', '0', '0', '0'], ['1', '0', '0', '0', '0', '1'], ['1', '1', '0', '0', '1', '1'], ['0', '0', '0', '0', '0', '0']]","[[1, 1], [1, 5], [3, 5], [4, 0]]","{'i': [0, 1, 2, 2, 0, 1, 2, 2, 0, 5, 4, 3, 3, 4, 5, 0, 1, 1, 4, 5, 3, 4], 'j': [5, 4, 4, 5, 1, 0, 0, 1, 0, 0, 1, 0, 1, 2, 1, 3, 3, 2, 5, 5, 4, 4], 't': [3258, 4717.9000000059605, 5895.9000000059605, 6996.9000000059605, 9008.40000000596, 10196.200000017881, 11330.800000011921, 12400.600000023842, 14331.800000011921, 16434.20000001788, 17605.600000023842, 18932.5, 20049.600000023842, 21363.70000001788, 22820.5, 25680.40000000596, 26833, 28287.100000023842, 29867.100000023842, 31139.40000000596, 32295.30000001192, 33559.40000000596], 'hit': ['0', '1', '0', '0', '0', '1', '0', '0', '0', '0', '1', '1', '0', '0', '0', '0', '0', '0', '1', '0', '0', '1'], 'b': []}","[['white', 'white', 'unknown', 'white', 'unknown', 'white'], ['black', 'black', 'white', 'white', 'black', 'black'], ['white', 'white', 'unknown', 'unknown', 'white', 'white'], ['black', 'white', 'unknown', 'unknown', 'white', 'black'], ['black', 'black', 'white', 'unknown', 'black', 'black'], ['white', 'white', 'unknown', 'unknown', 'unknown', 'white']]",22,0,10,,1,
,instructions,14,323533,0.0-4.0-4.0-1.2,68514e6ca359134eff9c664a,647869e6f69318bacc341d53,68517594cb97bac0458a9785,71,1,TRUE,2,TRUE,Player 71,50,"[{""""page_index"""":0,""""viewing_time"""":4169.699999988079}]",4170.40000000596,"","",,"","","","","",,,,,,
,findSquares,15,351340,0.0-4.0-4.0-0.3,68514e6ca359134eff9c664a,647869e6f69318bacc341d53,68517594cb97bac0458a9785,71,1,TRUE,2,TRUE,Player 71,50,"",,"","",,non-pretend,"[['0', '0', '0', '0', '0', '0'], ['0', '0', '1', '1', '0', '0'], ['0', '0', '1', '1', '0', '0'], ['0', '1', '0', '0', '1', '0'], ['0', '1', '0', '0', '1', '0'], ['0', '1', '0', '0', '1', '0']]","[[1, 2], [4, 4], [5, 1]]","{'i': [0, 1, 1, 2, 2, 3, 3, 3, 4, 5, 5, 2, 4, 4, 4, 5, 3], 'j': [2, 1, 3, 3, 2, 4, 5, 3, 5, 3, 4, 4, 3, 1, 0, 0, 1], 't': [3273.0999999940395, 4601.800000011921, 5713.800000011921, 7167.0999999940395, 8388.199999988079, 10477.09999999404, 12515.40000000596, 13990.90000000596, 15360.199999988079, 16490.30000001192, 17606.40000000596, 19032.30000001192, 20574.40000000596, 22187, 23330.19999998808, 24636.80000001192, 25758.90000000596], 'hit': ['0', '0', '1', '1', '1', '1', '0', '0', '0', '0', '1', '0', '0', '1', '0', '0', '1'], 'b': []}","[['unknown', 'unknown', 'white', 'unknown', 'unknown', 'unknown'], ['unknown', 'white', 'black', 'black', 'unknown', 'unknown'], ['unknown', 'unknown', 'black', 'black', 'white', 'unknown'], ['unknown', 'black', 'unknown', 'white', 'black', 'white'], ['white', 'black', 'unknown', 'white', 'black', 'white'], ['white', 'black', 'unknown', 'white', 'black', 'unknown']]",17,0,16,,3,
,instructions,16,356662,0.0-4.0-4.0-1.3,68514e6ca359134eff9c664a,647869e6f69318bacc341d53,68517594cb97bac0458a9785,71,1,TRUE,2,TRUE,Player 71,50,"[{""""page_index"""":0,""""viewing_time"""":5320.699999988079}]",5321.09999999404,"","",,"","","","","",,,,,,
,instructions,17,361485,0.0-4.0-5.0,68514e6ca359134eff9c664a,647869e6f69318bacc341d53,68517594cb97bac0458a9785,71,1,TRUE,2,TRUE,Player 71,50,"[{""""page_index"""":0,""""viewing_time"""":4821.700000017881}]",4822.20000001788,"","",,"","","","","",,,,,,
,instructions,18,389415,0.0-4.0-6.0-0.0,68514e6ca359134eff9c664a,647869e6f69318bacc341d53,68517594cb97bac0458a9785,71,1,TRUE,2,TRUE,Player 71,50,"[{""""page_index"""":0,""""viewing_time"""":4068.199999988079},{""""page_index"""":1,""""viewing_time"""":9490.800000011921},{""""page_index"""":2,""""viewing_time"""":6280.9000000059605},{""""page_index"""":3,""""viewing_time"""":8088.199999988079}]",27928.599999994,"","",,"","","","","",,,,,,
,survey-multi-choice,19,399042,0.0-4.0-6.0-1.0,68514e6ca359134eff9c664a,647869e6f69318bacc341d53,68517594cb97bac0458a9785,71,1,TRUE,2,TRUE,Player 71,50,"",9620.09999999404,"{""""Q0"""":""""... <b>repeat</b> my clicks from the first round, in the same order""""}",[0],1,multichoice_reconstruction,"","","","",,,,,,
,survey-html-form,20,409092,0.0-4.0-7.0,68514e6ca359134eff9c664a,647869e6f69318bacc341d53,68517594cb97bac0458a9785,71,1,TRUE,2,TRUE,Player 71,50,"",10043.8000000119,"{""""white_count"""":""""6""""}","",,white_card_report,"","","","",,,,,,6
,instructions,21,417820,0.0-4.0-8.0,68514e6ca359134eff9c664a,647869e6f69318bacc341d53,68517594cb97bac0458a9785,71,1,TRUE,2,TRUE,Player 71,50,"[{""""page_index"""":0,""""viewing_time"""":8726.199999988079}]",8726.69999998808,"","",,"","","","","",,,,,,
,findSquares,22,455707,0.0-4.0-9.0,68514e6ca359134eff9c664a,647869e6f69318bacc341d53,68517594cb97bac0458a9785,71,1,TRUE,2,TRUE,Player 71,50,"",,"","",,memory,"[['1', '1', '0', '0', '1', '1'], ['0', '0', '0', '0', '0', '0'], ['0', '0', '0', '0', '0', '0'], ['1', '0', '0', '0', '0', '1'], ['1', '1', '0', '0', '1', '1'], ['0', '0', '0', '0', '0', '0']]","[[0, 1], [0, 5], [4, 0], [4, 4]]","{'i': [3, 4, 4, 5, 5, 3, 3, 4, 5, 5, 0, 0, 1, 1, 0, 1, 1, 0, 3], 'j': [4, 3, 5, 5, 4, 0, 1, 1, 1, 0, 2, 0, 0, 1, 4, 4, 5, 3, 5], 't': [10410.09999999404, 11843.59999999404, 15380, 16459.29999998212, 18047.899999976158, 19482.19999998808, 20787, 22031.79999998212, 23239.899999976158, 24434.19999998808, 25741.899999976158, 26869.899999976158, 27888.79999998212, 29031.69999998808, 30437.5, 31586, 32670.899999976158, 34116.5, 35873.59999999404], 'hit': ['0', '0', '1', '0', '0', '1', '0', '1', '0', '0', '0', '1', '0', '0', '1', '0', '0', '0', '1'], 'b': []}","[['black', 'black', 'white', 'white', 'black', 'black'], ['white', 'white', 'unknown', 'unknown', 'white', 'white'], ['unknown', 'unknown', 'unknown', 'unknown', 'unknown', 'unknown'], ['black', 'white', 'unknown', 'unknown', 'white', 'black'], ['black', 'black', 'unknown', 'white', 'black', 'black'], ['white', 'white', 'unknown', 'unknown', 'white', 'white']]",19,0,13,,4,
,survey-text,23,462347,0.0-4.0-10.0,68514e6ca359134eff9c664a,647869e6f69318bacc341d53,68517594cb97bac0458a9785,71,1,TRUE,2,TRUE,Player 71,50,"",6617,"{""""worker_comments"""":""""""""}","",,"","","","","",,,,,,
,instructions,24,474018,0.0-4.0-11.0,68514e6ca359134eff9c664a,647869e6f69318bacc341d53,68517594cb97bac0458a9785,71,1,TRUE,2,TRUE,Player 71,50,"[{""""page_index"""":0,""""viewing_time"""":11669.09999999404}]",11669.7999999821,"","",,"","","","","",,,,,,
1,fullscreen,0,6525,0.0-0.0,68514e6ca359134eff9c664a,6840aeaf3335fb62990ed52d,68517591f50be4de27fe4172,72,2,TRUE,1,TRUE,Player 72,56,"",,"","",,"","","","","",,,,,,
,instructions,1,82071,0.0-1.0,68514e6ca359134eff9c664a,6840aeaf3335fb62990ed52d,68517591f50be4de27fe4172,72,2,TRUE,1,TRUE,Player 72,56,"[{""""page_index"""":0,""""viewing_time"""":23099.600000023842},{""""page_index"""":1,""""viewing_time"""":9336.399999976158},{""""page_index"""":2,""""viewing_time"""":17080.5},{""""page_index"""":3,""""viewing_time"""":9391.300000011921},{""""page_index"""":4,""""viewing_time"""":16632.69999998808}]",75541.7000000477,"","",,"","","","","",,,,,,
,survey-multi-choice,2,116271,0.0-2.0,68514e6ca359134eff9c664a,6840aeaf3335fb62990ed52d,68517591f50be4de27fe4172,72,2,TRUE,1,TRUE,Player 72,56,"",34196.3000000119,"{""""Q0"""":""""... find all black cards whilst revealing as <b>few white<b> cards as possible""""}",[0],1,multichoice_part1,"","","","",,,,,,
,instructions,3,121279,0.0-4.0-0.0,68514e6ca359134eff9c664a,6840aeaf3335fb62990ed52d,68517591f50be4de27fe4172,72,2,TRUE,1,TRUE,Player 72,56,"[{""""page_index"""":0,""""viewing_time"""":5005.900000035763}]",5006.5,"","",,"","","","","",,,,,,
,findSquares,4,150318,0.0-4.0-1.0,68514e6ca359134eff9c664a,6840aeaf3335fb62990ed52d,68517591f50be4de27fe4172,72,2,TRUE,1,TRUE,Player 72,56,"",,"","",,"","[['0', '0', '0', '0'], ['1', '1', '1', '1'], ['1', '1', '1', '1'], ['0', '0', '0', '0']]","[[2, 3]]","{'i': [3, 2, 1, 0, 3, 2, 1, 1, 0, 2, 3, 3, 1], 'j': [0, 2, 2, 2, 2, 1, 1, 0, 0, 0, 1, 3, 3], 't': [5074.100000023842, 7406.200000047684, 9096.200000047684, 11325.600000023842, 12439.400000035763, 13471.700000047684, 16455.700000047684, 17327.5, 19237.900000035763, 19934.400000035763, 23839.100000023842, 25278.200000047684, 27008.400000035763], 'hit': ['0', '1', '1', '0', '0', '1', '1', '1', '0', '1', '0', '0', '1'], 'b': []}","[['white', 'unknown', 'white', 'unknown'], ['black', 'black', 'black', 'black'], ['black', 'black', 'black', 'black'], ['white', 'white', 'white', 'white']]",13,0,2,,,
,instructions,5,156950,0.0-4.0-2.0,68514e6ca359134eff9c664a,6840aeaf3335fb62990ed52d,68517591f50be4de27fe4172,72,2,TRUE,1,TRUE,Player 72,56,"[{""""page_index"""":0,""""viewing_time"""":6630}]",6630.40000003576,"","",,"","","","","",,,,,,
,instructions,6,191590,0.0-4.0-3.0,68514e6ca359134eff9c664a,6840aeaf3335fb62990ed52d,68517591f50be4de27fe4172,72,2,TRUE,1,TRUE,Player 72,56,"[{""""page_index"""":0,""""viewing_time"""":29206.69999998808},{""""page_index"""":1,""""viewing_time"""":5432.199999988079}]",34639.3999999762,"","",,"","","","","",,,,,,
,findSquares,7,233875,0.0-4.0-4.0-0.0,68514e6ca359134eff9c664a,6840aeaf3335fb62990ed52d,68517591f50be4de27fe4172,72,2,TRUE,1,TRUE,Player 72,56,"",,"","",,non-pretend,"[['0', '0', '0', '0', '0', '0'], ['0', '0', '0', '0', '0', '0'], ['0', '0', '1', '1', '0', '0'], ['0', '0', '1', '1', '0', '0'], ['1', '1', '0', '0', '1', '1'], ['1', '0', '0', '0', '0', '1']]","[[2, 2], [4, 1], [4, 5]]","{'i': [3, 4, 3, 3, 4, 2, 4, 1, 1, 2, 2, 3, 1, 5, 4, 5, 3, 3, 5], 'j': [2, 4, 3, 1, 3, 3, 2, 2, 3, 1, 4, 4, 1, 0, 0, 1, 0, 5, 5], 't': [2716.900000035763, 6100.100000023842, 8182.5, 13682.100000023842, 15178.600000023842, 16258.300000011921, 22402.600000023842, 24274, 25645, 26924.19999998808, 28898.69999998808, 29514.900000035763, 30874.80000001192, 33226.69999998808, 34995.5, 36774.19999998808, 37639.40000003576, 39067.90000003576, 40275.80000001192], 'hit': ['1', '1', '1', '0', '0', '1', '0', '0', '0', '0', '0', '0', '0', '1', '1', '0', '0', '0', '1'], 'b': []}","[['unknown', 'unknown', 'unknown', 'unknown', 'unknown', 'unknown'], ['unknown', 'white', 'white', 'white', 'unknown', 'unknown'], ['unknown', 'white', 'black', 'black', 'white', 'unknown'], ['white', 'white', 'black', 'black', 'white', 'white'], ['black', 'black', 'white', 'white', 'black', 'black'], ['black', 'white', 'unknown', 'unknown', 'unknown', 'black']]",19,0,14,,2,
,instructions,8,239951,0.0-4.0-4.0-1.0,68514e6ca359134eff9c664a,6840aeaf3335fb62990ed52d,68517591f50be4de27fe4172,72,2,TRUE,1,TRUE,Player 72,56,"[{""""page_index"""":0,""""viewing_time"""":6074.299999952316}]",6075,"","",,"","","","","",,,,,,
,findSquares,9,257102,0.0-4.0-4.0-0.1,68514e6ca359134eff9c664a,6840aeaf3335fb62990ed52d,68517591f50be4de27fe4172,72,2,TRUE,1,TRUE,Player 72,56,"",,"","",,non-pretend,"[['0', '0', '0', '0', '0', '0'], ['0', '0', '1', '1', '0', '0'], ['0', '0', '1', '1', '0', '0'], ['0', '1', '0', '0', '1', '0'], ['0', '1', '0', '0', '1', '0'], ['0', '1', '0', '0', '1', '0']]","[[1, 2], [4, 4], [5, 1]]","{'i': [2, 3, 3, 4, 5, 3, 2, 2, 1], 'j': [2, 1, 3, 1, 4, 4, 4, 3, 3], 't': [2363.5, 6468.400000035763, 7251.699999988079, 8515.199999988079, 10058.900000035763, 11058.900000035763, 12404.900000035763, 13308.199999988079, 15139.300000011921], 'hit': ['1', '1', '0', '1', '1', '1', '0', '1', '1'], 'b': []}","[['unknown', 'unknown', 'unknown', 'unknown', 'unknown', 'unknown'], ['unknown', 'unknown', 'black', 'black', 'unknown', 'unknown'], ['unknown', 'unknown', 'black', 'black', 'white', 'unknown'], ['unknown', 'black', 'unknown', 'white', 'black', 'unknown'], ['unknown', 'black', 'unknown', 'unknown', 'black', 'unknown'], ['unknown', 'black', 'unknown', 'unknown', 'black', 'unknown']]",9,0,24,,3,
,instructions,10,261685,0.0-4.0-4.0-1.1,68514e6ca359134eff9c664a,6840aeaf3335fb62990ed52d,68517591f50be4de27fe4172,72,2,TRUE,1,TRUE,Player 72,56,"[{""""page_index"""":0,""""viewing_time"""":4581.900000035763}]",4582.60000002384,"","",,"","","","","",,,,,,
,findSquares,11,287475,0.0-4.0-4.0-0.2,68514e6ca359134eff9c664a,6840aeaf3335fb62990ed52d,68517591f50be4de27fe4172,72,2,TRUE,1,TRUE,Player 72,56,"",,"","",,non-pretend,"[['1', '1', '0', '0', '1', '1'], ['0', '0', '0', '0', '0', '0'], ['0', '0', '0', '0', '0', '0'], ['1', '0', '0', '0', '0', '1'], ['1', '1', '0', '0', '1', '1'], ['0', '0', '0', '0', '0', '0']]","[[0, 1], [0, 5], [4, 0], [4, 4]]","{'i': [1, 1, 3, 3, 3, 2, 4, 4, 4, 5, 1, 1, 0, 0, 0, 0, 3, 4], 'j': [1, 2, 4, 1, 0, 0, 1, 3, 2, 4, 4, 5, 4, 3, 2, 0, 5, 5], 't': [3192.899999976158, 4552.899999976158, 6679.800000011921, 8192.800000011921, 8695.300000011921, 9875, 10752.800000011921, 11823.300000011921, 12544.399999976158, 13420.5, 15807.399999976158, 16222.300000011921, 16942.80000001192, 17838.899999976158, 18766.599999964237, 19607.19999998808, 22862.899999976158, 23777], 'hit': ['0', '0', '0', '0', '1', '0', '1', '0', '0', '0', '0', '0', '1', '0', '0', '1', '1', '1'], 'b': []}","[['black', 'black', 'white', 'white', 'black', 'black'], ['unknown', 'white', 'white', 'unknown', 'white', 'white'], ['white', 'unknown', 'unknown', 'unknown', 'unknown', 'unknown'], ['black', 'white', 'unknown', 'unknown', 'white', 'black'], ['black', 'black', 'white', 'white', 'black', 'black'], ['unknown', 'unknown', 'unknown', 'unknown', 'white', 'unknown']]",18,0,14,,4,
,instructions,12,292111,0.0-4.0-4.0-1.2,68514e6ca359134eff9c664a,6840aeaf3335fb62990ed52d,68517591f50be4de27fe4172,72,2,TRUE,1,TRUE,Player 72,56,"[{""""page_index"""":0,""""viewing_time"""":4633.100000023842}]",4633.60000002384,"","",,"","","","","",,,,,,
,findSquares,13,349819,0.0-4.0-4.0-0.3,68514e6ca359134eff9c664a,6840aeaf3335fb62990ed52d,68517591f50be4de27fe4172,72,2,TRUE,1,TRUE,Player 72,56,"",,"","",,non-pretend,"[['0', '0', '0', '0', '0', '0'], ['1', '1', '0', '0', '1', '1'], ['0', '0', '0', '0', '0', '0'], ['1', '0', '0', '0', '0', '1'], ['1', '1', '0', '0', '1', '1'], ['0', '0', '0', '0', '0', '0']]","[[1, 1], [1, 5], [3, 5], [4, 0]]","{'i': [3, 4, 1, 1, 0, 0, 2, 2, 2, 1, 5, 2, 0, 3, 2, 2, 0, 0, 1, 5, 5, 4, 4, 3, 3, 3, 4, 4], 'j': [0, 5, 0, 4, 5, 4, 0, 1, 4, 3, 5, 5, 3, 1, 2, 3, 0, 1, 2, 0, 1, 2, 3, 2, 3, 4, 4, 1], 't': [7645.899999976158, 9832, 13497.5, 18047, 20047.100000023842, 21006.80000001192, 28822.30000001192, 30750.100000023842, 32542.19999998808, 34694.69999998808, 37286.5, 38294.30000001192, 41073, 43390, 44014.60000002384, 44653.89999997616, 45968.39999997616, 46416.89999997616, 47254.10000002384, 49162.60000002384, 49847.80000001192, 50913.30000001192, 51566.19999998808, 52678.39999997616, 53143.69999998808, 53794.10000002384, 54278.30000001192, 55689.30000001192], 'hit': ['1', '1', '1', '1', '0', '0', '0', '0', '0', '0', '0', '0', '0', '0', '0', '0', '0', '0', '0', '0', '0', '0', '0', '0', '0', '0', '1', '1'], 'b': []}","[['white', 'white', 'unknown', 'white', 'white', 'white'], ['black', 'black', 'white', 'white', 'black', 'black'], ['white', 'white', 'white', 'white', 'white', 'white'], ['black', 'white', 'white', 'white', 'white', 'black'], ['black', 'black', 'white', 'white', 'black', 'black'], ['white', 'white', 'unknown', 'unknown', 'unknown', 'white']]",28,0,4,,1,
,instructions,14,352081,0.0-4.0-4.0-1.3,68514e6ca359134eff9c664a,6840aeaf3335fb62990ed52d,68517591f50be4de27fe4172,72,2,TRUE,1,TRUE,Player 72,56,"[{""""page_index"""":0,""""viewing_time"""":2256.899999976158}]",2257.5,"","",,"","","","","",,,,,,
,instructions,15,354335,0.0-4.0-5.0,68514e6ca359134eff9c664a,6840aeaf3335fb62990ed52d,68517591f50be4de27fe4172,72,2,TRUE,1,TRUE,Player 72,56,"[{""""page_index"""":0,""""viewing_time"""":2253.300000011921}]",2253.80000001192,"","",,"","","","","",,,,,,
,instructions,16,392952,0.0-4.0-6.0-0.0,68514e6ca359134eff9c664a,6840aeaf3335fb62990ed52d,68517591f50be4de27fe4172,72,2,TRUE,1,TRUE,Player 72,56,"[{""""page_index"""":0,""""viewing_time"""":7431.299999952316},{""""page_index"""":1,""""viewing_time"""":9496.700000047684},{""""page_index"""":2,""""viewing_time"""":2790.699999988079},{""""page_index"""":3,""""viewing_time"""":18896.399999976158}]",38615.5999999642,"","",,"","","","","",,,,,,
,survey-multi-choice,17,401273,0.0-4.0-6.0-1.0,68514e6ca359134eff9c664a,6840aeaf3335fb62990ed52d,68517591f50be4de27fe4172,72,2,TRUE,1,TRUE,Player 72,56,"",8318.80000001192,"{""""Q0"""":""""... find all black cards whilst revealing as <b>few white</b> cards as possible""""}",[0],0,multichoice_reconstruction,"","","","",,,,,,
,instructions,18,436988,0.0-4.0-6.1-0.1,68514e6ca359134eff9c664a,6840aeaf3335fb62990ed52d,68517591f50be4de27fe4172,72,2,TRUE,1,TRUE,Player 72,56,"[{""""page_index"""":0,""""viewing_time"""":10084.900000035763},{""""page_index"""":1,""""viewing_time"""":7512.5},{""""page_index"""":2,""""viewing_time"""":2343.599999964237},{""""page_index"""":3,""""viewing_time"""":15772.300000011921}]",35713.8000000119,"","",,"","","","","",,,,,,
,survey-multi-choice,19,444337,0.0-4.0-6.1-1.1,68514e6ca359134eff9c664a,6840aeaf3335fb62990ed52d,68517591f50be4de27fe4172,72,2,TRUE,1,TRUE,Player 72,56,"",7347.10000002384,"{""""Q0"""":""""... <b>repeat</b> my clicks from the first round, in the same order""""}",[0],1,multichoice_reconstruction,"","","","",,,,,,
,survey-html-form,20,469292,0.0-4.0-7.0,68514e6ca359134eff9c664a,6840aeaf3335fb62990ed52d,68517591f50be4de27fe4172,72,2,TRUE,1,TRUE,Player 72,56,"",24952.1999999881,"{""""white_count"""":""""7""""}","",,white_card_report,"","","","",,,,,,7
,instructions,21,485531,0.0-4.0-8.0,68514e6ca359134eff9c664a,6840aeaf3335fb62990ed52d,68517591f50be4de27fe4172,72,2,TRUE,1,TRUE,Player 72,56,"[{""""page_index"""":0,""""viewing_time"""":16237.199999988079}]",16237.6000000238,"","",,"","","","","",,,,,,
,findSquares,22,542274,0.0-4.0-9.0,68514e6ca359134eff9c664a,6840aeaf3335fb62990ed52d,68517591f50be4de27fe4172,72,2,TRUE,1,TRUE,Player 72,56,"",,"","",,memory,"[['0', '0', '0', '0', '0', '0'], ['0', '0', '0', '0', '0', '0'], ['0', '0', '1', '1', '0', '0'], ['0', '0', '1', '1', '0', '0'], ['1', '1', '0', '0', '1', '1'], ['1', '0', '0', '0', '0', '1']]","[[2, 2], [4, 1], [4, 5]]","{'i': [4, 4, 3, 3, 5, 5, 3, 4, 3, 4, 5, 5, 5, 5, 3, 2], 'j': [4, 0, 3, 1, 1, 4, 4, 2, 2, 3, 2, 3, 5, 0, 5, 3], 't': [8153.5, 9769.099999964237, 12529.899999976158, 14162.299999952316, 16986.899999976158, 18930.69999998808, 27427.19999998808, 31739.19999998808, 35969.299999952316, 40521.19999998808, 43041.69999998808, 45257.19999998808, 47211.299999952316, 50961.59999996424, 53780.89999997616, 54723.39999997616], 'hit': ['1', '1', '1', '0', '0', '0', '0', '0', '1', '0', '0', '0', '1', '1', '0', '1'], 'b': []}","[['unknown', 'unknown', 'unknown', 'unknown', 'unknown', 'unknown'], ['unknown', 'unknown', 'unknown', 'unknown', 'unknown', 'unknown'], ['unknown', 'unknown', 'black', 'black', 'unknown', 'unknown'], ['unknown', 'white', 'black', 'black', 'white', 'white'], ['black', 'black', 'white', 'white', 'black', 'black'], ['black', 'white', 'white', 'white', 'white', 'black']]",16,0,17,,2,
,survey-text,23,584445,0.0-4.0-10.0,68514e6ca359134eff9c664a,6840aeaf3335fb62990ed52d,68517591f50be4de27fe4172,72,2,TRUE,1,TRUE,Player 72,56,"",42165,"{""""worker_comments"""":""""""""}","",,"","","","","",,,,,,
,instructions,24,595841,0.0-4.0-11.0,68514e6ca359134eff9c664a,6840aeaf3335fb62990ed52d,68517591f50be4de27fe4172,72,2,TRUE,1,TRUE,Player 72,56,"[{""""page_index"""":0,""""viewing_time"""":11393.099999964237}]",11393.6999999881,"","",,"","","","","",,,,,,
1,fullscreen,0,3661,0.0-0.0,68514e6ca359134eff9c664a,6734f1a1bb7c7049f1af7029,685175b1f57e0c4b59f35139,73,2,TRUE,1,TRUE,Player 73,33,"",,"","",,"","","","","",,,,,,
,instructions,1,101939,0.0-1.0,68514e6ca359134eff9c664a,6734f1a1bb7c7049f1af7029,685175b1f57e0c4b59f35139,73,2,TRUE,1,TRUE,Player 73,33,"[{""""page_index"""":0,""""viewing_time"""":54256.300000071526},{""""page_index"""":1,""""viewing_time"""":9012.5},{""""page_index"""":2,""""viewing_time"""":12153.5},{""""page_index"""":3,""""viewing_time"""":10975.299999952316},{""""page_index"""":4,""""viewing_time"""":11876.200000047684}]",98274.8000000715,"","",,"","","","","",,,,,,
,survey-multi-choice,2,182769,0.0-2.0,68514e6ca359134eff9c664a,6734f1a1bb7c7049f1af7029,685175b1f57e0c4b59f35139,73,2,TRUE,1,TRUE,Player 73,33,"",80825.7999999523,"{""""Q0"""":""""... find all black cards whilst revealing as <b>few white<b> cards as possible""""}",[0],1,multichoice_part1,"","","","",,,,,,
