"subj_id","trial_num","left_word","left_number","middle_word","middle_number","right_word","right_number","chose_gems","chose_onlystones","chose_other","response_position","correct_choice_position","is_catch_trial","is_show_trial","stoneposition","emeraldposition","rt","comprehension_failures_part1","number_correct_part1","mentioned_rule","is_consistent","confidence","confidence_rt","comprehension_failures_part2_1","comprehension_failures_part2_2","comprehension_failures_part2_3","comprehension_failures_part2_4","number_correct_part2","chose_gems_p2","chose_onlystones_p2","chose_other_p2","response_position_p2","correct_choice_position_p2","rt_p2"
"6792ae75a1d32bb9534a819f",1,"Dinosaur",4,"Cereal",1,"Shovel",1,TRUE,FALSE,FALSE,"left","left",FALSE,TRUE,"right","[""left"",""middle""]",8758.09999999404,0,19,FALSE,TRUE,69,4022.60000000894,0,0,0,0,30,TRUE,FALSE,FALSE,"left","left",9874.60000000894
"5e3f04fdb721da159417a725",1,"Fence",4,"Cow",3,"Teeth",3,FALSE,TRUE,FALSE,"left","right",FALSE,TRUE,"left","[""middle"",""right""]",4119.30000000075,0,10,FALSE,TRUE,67,1811.39999999851,0,0,0,0,18,FALSE,TRUE,FALSE,"left","right",4574.19999999925
"670e09973d94a59502e84783",1,"Dress",2,"Puppets",3,"Shovel",2,TRUE,FALSE,FALSE,"middle","middle",FALSE,TRUE,"right","[""left"",""middle""]",1793.89999985695,0,20,FALSE,TRUE,100,1909.90000009537,0,0,0,0,39,TRUE,FALSE,FALSE,"middle","middle",1598.29999995232
"66f5e385ef9ec0b27c796a5c",1,"Boat",3,"Circle",2,"Car",5,TRUE,FALSE,FALSE,"left","left",FALSE,TRUE,"right","[""left"",""middle""]",9047.39999997616,0,23,FALSE,TRUE,8,3848,0,0,0,0,20,TRUE,FALSE,FALSE,"left","left",12879.0999999046
"664f74aec5c6e6331cd6e860",1,"Bubbles",5,"Yogurt",2,"Elbow",5,TRUE,FALSE,FALSE,"left","left",FALSE,TRUE,"right","[""left"",""middle""]",13208.4000000954,0,20,FALSE,TRUE,81,5226.69999980927,0,0,0,0,35,TRUE,FALSE,FALSE,"left","left",5942.30000019073
"5c28b31a0091e40001ca5030",1,"Net",2,"Ant",2,"Swimsuit",4,TRUE,FALSE,FALSE,"middle","middle",FALSE,TRUE,"right","[""left"",""middle""]",6763,0,33,FALSE,FALSE,14,3614,0,0,0,0,39,FALSE,TRUE,FALSE,"right","middle",17380
"676580fa5bded2910a43ed67",1,"Milk",2,"Goal",2,"Bacon",3,TRUE,FALSE,FALSE,"right","right",FALSE,TRUE,"left","[""middle"",""right""]",3979,0,22,FALSE,TRUE,97,1551,0,0,0,0,29,TRUE,FALSE,FALSE,"right","right",1796.99999999997
"60e0dc6be0772b7dfdad9b2c",1,"Hot Dog",5,"Pool",5,"Car",1,FALSE,FALSE,TRUE,"left","right",FALSE,TRUE,"middle","[""left"",""right""]",3006.5,0,16,FALSE,TRUE,47,1972,0,0,0,0,35,FALSE,FALSE,TRUE,"left","right",3165.10000002384
"63f77a5dde1ea03305e119e0",1,"Button",1,"Skateboard",2,"Tractor",5,FALSE,TRUE,FALSE,"right","middle",FALSE,TRUE,"right","[""left"",""middle""]",5796.39999999999,0,28,TRUE,TRUE,81,1407.79999999999,0,0,0,0,41,FALSE,TRUE,FALSE,"right","middle",3397.80000000005
"5cafc17ace1fa80017a20d6b",1,"Washcloth",5,"Scooter",1,"Toes",5,TRUE,FALSE,FALSE,"left","left",FALSE,TRUE,"middle","[""left"",""right""]",12073.299999997,0,28,TRUE,TRUE,90,1420.09999999404,0,0,0,0,32,TRUE,FALSE,FALSE,"left","left",5281.10000000894
"66854f18db63152992b1a81e",1,"Leg",5,"Tractor",2,"String",2,TRUE,FALSE,FALSE,"left","left",FALSE,TRUE,"right","[""left"",""middle""]",2378.10000000149,0,7,FALSE,TRUE,74,2103,0,0,0,0,4,TRUE,FALSE,FALSE,"left","left",3132.20000000298
"66537b0010ca11939058e52b",1,"Spiderweb",4,"Pencil",2,"Elbow",2,TRUE,FALSE,FALSE,"left","left",FALSE,TRUE,"middle","[""left"",""right""]",4969.20000004768,0,21,FALSE,FALSE,68,2709.5,0,0,0,0,19,FALSE,TRUE,FALSE,"middle","left",5518.40000009537
"669eb709554e753adddffe01",1,"Scissors",2,"Bead",3,"Skateboard",4,FALSE,FALSE,TRUE,"middle","right",FALSE,TRUE,"left","[""middle"",""right""]",3351.5,0,20,TRUE,TRUE,77,1233.89999985695,0,0,0,0,30,FALSE,FALSE,TRUE,"middle","right",3420.09999990463
"59dd90f6e75b450001a68dac",1,"Wheel",4,"Potatoes",5,"Paper",1,FALSE,FALSE,TRUE,"middle","right",FALSE,TRUE,"left","[""middle"",""right""]",9536,0,32,TRUE,TRUE,100,1196.29999995232,0,0,0,0,40,FALSE,FALSE,TRUE,"middle","right",5555.30000001192
"5e121701dc79bd8a1a22ca99",1,"Airplane",2,"Bananas",4,"Cloud",1,TRUE,FALSE,FALSE,"middle","middle",TRUE,TRUE,"left","[""middle"",""right""]",2458.70000004768,0,18,FALSE,TRUE,15,3600.39999985695,0,1,1,0,25,TRUE,FALSE,FALSE,"middle","middle",3173.20000004768
"5fd393664d8c020163cb3ef2",1,"Bridge",5,"Knee",5,"Sink",1,FALSE,FALSE,TRUE,"left","middle",FALSE,TRUE,"right","[""left"",""middle""]",3542.5,0,15,FALSE,FALSE,81,5710.70000000298,0,0,0,0,35,TRUE,FALSE,FALSE,"middle","middle",4385.20000000298
"5c4d8d706b23ab0001a34af2",1,"Glue",5,"Pen",5,"Cupcake",5,FALSE,FALSE,TRUE,"right","middle",FALSE,TRUE,"left","[""middle"",""right""]",5580.30000000075,0,20,FALSE,TRUE,2,3171.5,0,0,0,0,15,FALSE,FALSE,TRUE,"right","middle",7102.80000000075
"6142013d4dd8ae5ca2b4329b",1,"Ear",3,"Rabbit",4,"Giraffe",4,FALSE,TRUE,FALSE,"middle","left",FALSE,TRUE,"middle","[""left"",""right""]",5030.29999995232,0,20,FALSE,FALSE,36,4506.70000004768,0,0,0,0,15,FALSE,FALSE,TRUE,"right","left",6901.39999985695
"67c5d7d4bfda0ffd6d9a5ef8",1,"Camera",4,"Paper",2,"Gorilla",1,TRUE,FALSE,FALSE,"left","left",FALSE,TRUE,"right","[""left"",""middle""]",2871,0,18,FALSE,TRUE,15,2666,0,0,0,0,13,TRUE,FALSE,FALSE,"left","left",3972
"64a9858be9b52e570ffb3c1e",1,"Fork",1,"Bathtub",5,"Rainbow",2,TRUE,FALSE,FALSE,"middle","middle",FALSE,TRUE,"left","[""middle"",""right""]",3559,0,35,TRUE,TRUE,89,1032,0,0,0,0,30,TRUE,FALSE,FALSE,"middle","middle",2100
"5c0873675b32d500012e3f2c",1,"Baby",4,"Rock",4,"Vacuum",5,TRUE,FALSE,FALSE,"left","left",FALSE,TRUE,"middle","[""left"",""right""]",10119,0,18,FALSE,TRUE,77,6181,0,0,0,0,38,TRUE,FALSE,FALSE,"left","left",5660
"5ecf5a78ba30501d2ca5e34b",1,"Grass",3,"Train",4,"Apples",1,TRUE,FALSE,FALSE,"right","right",TRUE,TRUE,"left","[""middle"",""right""]",1650,0,20,TRUE,TRUE,100,1348.89999999106,0,0,0,0,15,TRUE,FALSE,FALSE,"right","right",1657.5
"60461bfeeac81b04cf62f7a6",1,"Cup",1,"Popsicle",3,"Doughnut",4,FALSE,FALSE,TRUE,"left","middle",FALSE,TRUE,"right","[""left"",""middle""]",4622,0,10,FALSE,FALSE,100,3330,0,0,1,0,10,TRUE,FALSE,FALSE,"middle","middle",2573
"67803b5508f3d995ef13696b",1,"Train",2,"Jump rope",1,"Spoon",2,FALSE,TRUE,FALSE,"right","left",FALSE,TRUE,"right","[""left"",""middle""]",4441.5,0,15,TRUE,TRUE,78,2358.70000000298,0,0,0,0,20,FALSE,TRUE,FALSE,"right","left",3429.30000000447
"6053e01a6a8e8516ba7d47a7",1,"Helicopter",2,"Clown",2,"Tricycle",1,FALSE,TRUE,FALSE,"right","left",FALSE,TRUE,"right","[""left"",""middle""]",6851.69999999553,0,17,FALSE,TRUE,70,8640.30000000447,0,0,0,0,22,FALSE,TRUE,FALSE,"right","left",6541.39999999851
"5f1088e27a43fe0c64ca5814",1,"Dolls",2,"Stairs",2,"Whistle",5,FALSE,FALSE,TRUE,"right","left",FALSE,TRUE,"middle","[""left"",""right""]",4364.39999997616,0,10,FALSE,TRUE,69,2108.80000007153,0,0,0,0,8,FALSE,FALSE,TRUE,"right","left",3822.60000002384
"5e787106a9d3b53ee4281eb1",1,"Pot",3,"Cupcake",1,"Flower",3,TRUE,FALSE,FALSE,"middle","middle",FALSE,TRUE,"left","[""middle"",""right""]",2842,0,21,FALSE,TRUE,11,2177,0,0,0,0,37,TRUE,FALSE,FALSE,"middle","middle",4478
"5de3c83c2033793be6591e53",1,"Newspaper",3,"Moon",5,"Rope",5,FALSE,TRUE,FALSE,"left","middle",FALSE,TRUE,"left","[""middle"",""right""]",3563.10000000894,0,15,FALSE,FALSE,38,1406.70000000298,0,0,0,0,15,TRUE,FALSE,FALSE,"middle","middle",3832.89999999106
"5b681788ca518a0001c7a755",1,"Iron",1,"Lamp",1,"Goal",2,FALSE,TRUE,FALSE,"right","left",FALSE,TRUE,"right","[""left"",""middle""]",2856.20000004768,0,15,FALSE,TRUE,4,1868.70000004768,0,0,0,0,35,FALSE,TRUE,FALSE,"right","left",5593.5
"5c4f5967aac8be0001716a65",1,"Earring",1,"Shoulders",2,"Tie",5,FALSE,FALSE,TRUE,"right","left",FALSE,TRUE,"middle","[""left"",""right""]",2998.29999999702,0,17,FALSE,TRUE,88,1090.90000000596,0,0,1,0,40,FALSE,FALSE,TRUE,"right","left",3358.20000000298
"664c9ccdfb4921f641e9ff91",1,"Wheel",1,"Books",2,"Chopsticks",5,FALSE,FALSE,TRUE,"middle","left",FALSE,TRUE,"right","[""left"",""middle""]",3209,0,20,FALSE,FALSE,71,2551.40000000037,0,0,0,0,40,FALSE,TRUE,FALSE,"right","left",4810
"6151556ef73ba765c7ff55f6",1,"Toy",2,"Elbow",2,"Spiderweb",3,FALSE,TRUE,FALSE,"left","right",FALSE,TRUE,"left","[""middle"",""right""]",8449.20000000298,0,22,TRUE,TRUE,51,1820.59999999404,0,0,1,0,14,FALSE,TRUE,FALSE,"left","right",4537.59999999404
"681b781064a5701a5ceee3bc",1,"Stamps",5,"Strawberries",1,"Refrigerator",1,TRUE,FALSE,FALSE,"middle","middle",TRUE,TRUE,"left","[""middle"",""right""]",2815.7000002861,0,18,TRUE,TRUE,99,1758.90000009537,0,0,0,0,33,TRUE,FALSE,FALSE,"middle","middle",4898
"6693a6ffc58de3bb9c5341de",1,"Socks",5,"Flower",2,"Tiger",4,TRUE,FALSE,FALSE,"left","left",FALSE,TRUE,"right","[""left"",""middle""]",5680.19999992847,0,23,TRUE,TRUE,100,1833.09999990463,0,0,0,0,36,TRUE,FALSE,FALSE,"left","left",1660.5
"5ca6717bb54fe60001e22441",1,"Bowl",3,"Hose",1,"Yo-yo",3,FALSE,FALSE,TRUE,"left","middle",FALSE,TRUE,"right","[""left"",""middle""]",5440.79999999702,0,14,TRUE,TRUE,30,2619.5,0,0,0,0,25,FALSE,FALSE,TRUE,"left","middle",3459.80000000447
"673e2923ed2dd1f79b63d19d",1,"Sand",5,"Blocks",5,"Microphone",5,FALSE,FALSE,TRUE,"left","middle",FALSE,TRUE,"right","[""left"",""middle""]",4427.89999997616,0,25,TRUE,TRUE,100,3733.80000007153,0,0,0,0,35,FALSE,FALSE,TRUE,"left","middle",2646.39999997616
"669677d986a5a20026bbf20e",1,"Bee",2,"Zebra",3,"Ghost",1,TRUE,FALSE,FALSE,"middle","middle",FALSE,TRUE,"left","[""middle"",""right""]",9175.29999999702,0,18,FALSE,FALSE,0,2558.29999999702,0,0,0,0,15,FALSE,TRUE,FALSE,"left","middle",5943
"62fccb9647eb07d62e9b6baa",1,"Heart",4,"Tongue",5,"Socks",1,TRUE,FALSE,FALSE,"middle","middle",FALSE,TRUE,"left","[""middle"",""right""]",4913.89999997616,0,37,TRUE,TRUE,77,3222.5,0,0,0,0,30,TRUE,FALSE,FALSE,"middle","middle",5372.40000003576
"56d56e550b5634000bdc5703",1,"Cake",1,"Pajamas",2,"Elephant",1,TRUE,FALSE,FALSE,"middle","middle",FALSE,TRUE,"left","[""middle"",""right""]",6900.20000000007,0,22,TRUE,TRUE,74,3117.10000000009,0,0,0,0,27,TRUE,FALSE,FALSE,"middle","middle",3299
"631610af8e747093cd90e00d",1,"Ant",1,"Pear",5,"Arm",5,TRUE,FALSE,FALSE,"middle","middle",TRUE,TRUE,"right","[""left"",""middle""]",3689.29999995232,0,17,FALSE,TRUE,100,1528.90000003576,0,0,0,0,30,TRUE,FALSE,FALSE,"middle","middle",1294.59999996424
"667be3b3495a08369501bcbb",1,"Arm",1,"Pizza",2,"Pirate",2,FALSE,TRUE,FALSE,"middle","right",FALSE,TRUE,"middle","[""left"",""right""]",6214.70000000019,0,20,FALSE,FALSE,26,4478.09999999963,0,0,0,0,19,TRUE,FALSE,FALSE,"right","right",2584
"6730f2e20f5915ff4ad2c07d",1,"Baby",3,"Octopus",5,"Gorilla",2,TRUE,FALSE,FALSE,"right","right",FALSE,TRUE,"left","[""middle"",""right""]",5558.09999990463,0,17,TRUE,FALSE,2,2867.2999997139,0,0,0,1,16,FALSE,FALSE,TRUE,"middle","right",6480.40000009537
"5d8cef3c28e183001a335ab0",1,"Diaper",2,"Circle",2,"Octopus",5,FALSE,TRUE,FALSE,"right","middle",FALSE,TRUE,"right","[""left"",""middle""]",2545,0,12,FALSE,FALSE,16,1745.59999990463,0,0,0,0,22,TRUE,FALSE,FALSE,"middle","middle",1695.09999990463
"664ccdd7d581711cd0c36f2b",1,"Cup",3,"Horse",4,"Truck",5,TRUE,FALSE,FALSE,"right","right",FALSE,TRUE,"middle","[""left"",""right""]",5899.29999999981,0,20,FALSE,FALSE,3,1259.29999999981,0,0,0,0,6,FALSE,TRUE,FALSE,"middle","right",6844.5
"68a5eefd236f1c08d08ffce6",1,"Boat",5,"Bear",5,"Bone",2,FALSE,TRUE,FALSE,"middle","left",FALSE,TRUE,"middle","[""left"",""right""]",4981.20000001788,0,20,FALSE,TRUE,14,2906.70000001788,0,0,0,0,25,FALSE,TRUE,FALSE,"middle","left",6261.19999998808
"5aafd9eff69e940001d88bf4",1,"Whistle",5,"Candy",1,"Flower",2,TRUE,FALSE,FALSE,"left","left",FALSE,TRUE,"middle","[""left"",""right""]",5136,0,21,FALSE,TRUE,55,1661,0,0,0,0,12,TRUE,FALSE,FALSE,"left","left",6063
"5a0c4184fe645f0001e9f5dd",1,"Pillow",1,"Lunch",2,"Paper",1,FALSE,TRUE,FALSE,"middle","left",FALSE,TRUE,"middle","[""left"",""right""]",1712.89999999991,0,15,FALSE,FALSE,0,1460.80000000005,0,0,0,0,10,TRUE,FALSE,FALSE,"left","left",2773.09999999986
"5f08e3eda7b89d16266b0cdf",1,"Towels",1,"Nest",1,"Blocks",3,FALSE,TRUE,FALSE,"left","middle",FALSE,TRUE,"left","[""middle"",""right""]",2582,0,8,TRUE,FALSE,80,2059,0,0,0,0,30,FALSE,FALSE,TRUE,"right","middle",2267
"66b507cc1a7e164991afbe17",1,"Stairs",3,"Vacuum",3,"Gorilla",1,FALSE,TRUE,FALSE,"left","middle",FALSE,TRUE,"left","[""middle"",""right""]",5203.09999999404,1,33,FALSE,TRUE,72,3111.20000000298,0,0,0,0,25,FALSE,TRUE,FALSE,"left","middle",4396.09999999404
"5e459f61418f610891628564",1,"Grapes",2,"Tiger",5,"Bed",4,TRUE,FALSE,FALSE,"left","left",TRUE,TRUE,"right","[""left"",""middle""]",1816.79999923706,0,16,FALSE,TRUE,99,1317.89999961853,0,0,0,0,40,TRUE,FALSE,FALSE,"left","left",2041.30000019073
"58c4ff360f0c150001ed45a4",1,"Spoon",2,"Boots",1,"Peas",5,TRUE,FALSE,FALSE,"right","right",FALSE,TRUE,"left","[""middle"",""right""]",3176.59999999404,1,30,FALSE,TRUE,100,1668.59999999404,0,0,0,0,20,TRUE,FALSE,FALSE,"right","right",1510.59999999404
"6658e2cb395c02efada6a7a1",1,"Curtain",2,"Ice Cream",2,"Pie",1,FALSE,FALSE,TRUE,"middle","right",FALSE,TRUE,"left","[""middle"",""right""]",4809.60000000894,0,12,TRUE,TRUE,61,2407.80000001192,0,0,0,0,13,FALSE,FALSE,TRUE,"middle","right",4713
"6614fb6af3c5aa23b962ea2d",1,"Pudding",1,"Carrots",1,"Movie",5,FALSE,FALSE,TRUE,"left","middle",FALSE,TRUE,"right","[""left"",""middle""]",4008.5,0,10,FALSE,TRUE,18,2426.70000000112,0,0,0,0,5,FALSE,FALSE,TRUE,"left","middle",2384.90000000037
"6329c13285c93cafdf51ed77",1,"Princess",1,"Shoulders",2,"Sticker",2,FALSE,FALSE,TRUE,"middle","left",FALSE,TRUE,"right","[""left"",""middle""]",5603.5,0,21,FALSE,TRUE,66,1958.30000000075,0,0,0,0,17,FALSE,FALSE,TRUE,"middle","left",4435.59999999963
"6697cf02d714e7ee3fdedcec",1,"Lion",1,"Stool",1,"Cupcake",4,TRUE,FALSE,FALSE,"right","right",FALSE,TRUE,"left","[""middle"",""right""]",2078.39999997616,0,20,FALSE,TRUE,85,3175.79999995232,0,0,0,0,15,TRUE,FALSE,FALSE,"right","right",2353.5
"678f6e1f6a3d68ee8c1533f5",1,"Bow",5,"Bathtub",5,"Movie",2,FALSE,TRUE,FALSE,"left","middle",FALSE,TRUE,"left","[""middle"",""right""]",2007.80000001192,0,10,FALSE,TRUE,91,1244.39999999106,0,0,0,0,15,FALSE,TRUE,FALSE,"left","middle",3319.29999999702
"63f7ac13d942e94c18c92d4b",1,"Wagon",2,"Pirate",3,"Rainbow",1,FALSE,TRUE,FALSE,"left","middle",FALSE,TRUE,"left","[""middle"",""right""]",7707.70000004768,0,16,TRUE,TRUE,87,2094.09999990463,0,0,0,0,20,FALSE,TRUE,FALSE,"left","middle",2387.59999990463
"60eda0b5e8f579f6a73d0f6b",1,"Ladder",4,"Puzzles",1,"Socks",1,FALSE,TRUE,FALSE,"left","middle",FALSE,TRUE,"left","[""middle"",""right""]",4555.60000002384,0,15,FALSE,TRUE,65,3495.20000004768,0,0,0,0,8,FALSE,TRUE,FALSE,"left","middle",11651.1000000238
"5b52f4933234ab00014ca442",1,"Clock",2,"Swimsuit",1,"Kangaroo",4,FALSE,FALSE,TRUE,"left","right",FALSE,TRUE,"middle","[""left"",""right""]",2587,0,18,FALSE,FALSE,100,1911.29999995232,0,0,0,0,42,TRUE,FALSE,FALSE,"right","right",2898.5
"639844d5b2757a6f6377a69b",1,"Moon",5,"Plate",5,"TV",4,FALSE,FALSE,TRUE,"middle","left",FALSE,TRUE,"right","[""left"",""middle""]",8448.39999997616,0,28,FALSE,TRUE,80,1351.29999995232,0,0,0,0,26,FALSE,FALSE,TRUE,"middle","left",4049.5
"629f6b8c65fcae219e245284",1,"Mailbox",5,"Pool",4,"CD",5,FALSE,FALSE,TRUE,"left","right",FALSE,TRUE,"middle","[""left"",""right""]",2043.10000000149,0,31,TRUE,FALSE,73,1655.10000000149,0,0,0,0,35,TRUE,FALSE,FALSE,"right","right",1706
"5fda057989ec4c35a700f69f",1,"Sink",1,"Necklace",1,"Hamburger",2,FALSE,FALSE,TRUE,"right","left",FALSE,TRUE,"middle","[""left"",""right""]",10918.8999999762,0,23,FALSE,TRUE,0,2515.70000004768,0,0,0,0,15,FALSE,FALSE,TRUE,"right","left",7408
"63d4315d46c8643186d488f7",1,"Bucket",3,"Knee",1,"Rainbow",3,TRUE,FALSE,FALSE,"right","right",FALSE,TRUE,"left","[""middle"",""right""]",8898.90000000037,0,18,FALSE,FALSE,22,3851.20000000112,0,0,0,0,21,FALSE,TRUE,FALSE,"left","right",4544.89999999851
"558fd02cfdf99b39cb035e5d",1,"Coloring Book",1,"Chicken",4,"Snow",2,FALSE,FALSE,TRUE,"right","left",FALSE,TRUE,"middle","[""left"",""right""]",4418,0,16,FALSE,TRUE,20,2439,0,0,0,0,11,FALSE,FALSE,TRUE,"right","left",5529
"66cbc2627559d53c0e3e4ac4",1,"Glove",2,"Circle",2,"Slinky",4,TRUE,FALSE,FALSE,"right","right",FALSE,TRUE,"middle","[""left"",""right""]",4466.60000000894,0,22,TRUE,TRUE,92,3024.20000000298,0,0,0,0,40,TRUE,FALSE,FALSE,"right","right",5306.09999999404
"6762d29bf8f9712a46c73b62",1,"Bus",1,"Fingers",5,"Bird",3,FALSE,TRUE,FALSE,"middle","left",FALSE,TRUE,"middle","[""left"",""right""]",3491.59999999776,0,32,TRUE,FALSE,13,8369.30000000075,0,0,0,0,27,FALSE,FALSE,TRUE,"right","left",10563.5
"627a76b96bea55210aecbba9",1,"Pot",5,"Dolphin",1,"Backpack",3,FALSE,TRUE,FALSE,"right","middle",FALSE,TRUE,"right","[""left"",""middle""]",2925.19999998808,0,10,FALSE,FALSE,65,1984.19999998808,0,0,0,0,40,FALSE,FALSE,TRUE,"left","middle",4603.5
"5cc53cf3291607001757c712",1,"Money",2,"Square",4,"Moon",1,FALSE,FALSE,TRUE,"middle","right",FALSE,TRUE,"left","[""middle"",""right""]",7889.19999998808,0,25,FALSE,TRUE,94,1842.30000001192,0,0,0,0,18,FALSE,FALSE,TRUE,"middle","right",6708
"608ab6edcbea5439dc2f537e",1,"Tiger",3,"Vacuum",3,"Notebook",5,FALSE,FALSE,TRUE,"left","right",FALSE,TRUE,"middle","[""left"",""right""]",4250.80000000075,0,31,FALSE,FALSE,66,1463.30000000075,0,0,0,0,23,FALSE,TRUE,FALSE,"middle","right",6166.69999999925
"5ee0edcb962eba464f486b40",1,"Heart",4,"Broom",1,"Tricycle",2,FALSE,FALSE,TRUE,"left","right",FALSE,TRUE,"middle","[""left"",""right""]",6438.5,0,19,TRUE,TRUE,43,3598,0,0,1,0,27,FALSE,FALSE,TRUE,"left","right",4733.09999999404
"55848744fdf99b574f55ada0",1,"Milk",3,"Bridge",1,"Fingers",1,FALSE,FALSE,TRUE,"left","middle",FALSE,TRUE,"right","[""left"",""middle""]",13935.1999998093,0,19,FALSE,TRUE,18,1989.89999985695,0,0,0,0,10,FALSE,FALSE,TRUE,"left","middle",5323.70000004768
"59fabb7e38ed430001be6965",1,"Towels",3,"Stairs",1,"Vacuum",4,TRUE,FALSE,FALSE,"left","left",FALSE,TRUE,"middle","[""left"",""right""]",6660,0,15,FALSE,FALSE,39,3495.59999999963,0,0,0,0,8,FALSE,FALSE,TRUE,"right","left",4313.5
"65c347be7d456f4e0902823d",1,"Owl",1,"Cupcake",1,"Pool",5,FALSE,FALSE,TRUE,"middle","left",FALSE,TRUE,"right","[""left"",""middle""]",4555,0,22,FALSE,FALSE,56,2317.5,0,0,0,0,26,TRUE,FALSE,FALSE,"left","left",11798.900000006
"66635ce30892c73e41fee639",1,"Bag",1,"Microphone",4,"Flower",1,FALSE,FALSE,TRUE,"middle","left",FALSE,TRUE,"right","[""left"",""middle""]",2871.79999995232,0,22,FALSE,TRUE,18,1660.29999995232,0,0,0,0,36,FALSE,FALSE,TRUE,"middle","left",7001.89999985695
"58a43e029a17120001d910d5",1,"Taco",4,"Shoes",4,"Eyes",1,FALSE,FALSE,TRUE,"left","middle",FALSE,TRUE,"right","[""left"",""middle""]",3469.60000038147,0,11,FALSE,TRUE,15,1812.79999923706,0,0,0,0,12,FALSE,FALSE,TRUE,"left","middle",5015.59999847412
"63af557b3d4f219c3226b7d6",1,"Pig",2,"Fence",3,"Cable",4,TRUE,FALSE,FALSE,"middle","middle",FALSE,TRUE,"left","[""middle"",""right""]",7212.5,0,18,TRUE,FALSE,27,2030.69999998808,0,0,0,0,9,FALSE,FALSE,TRUE,"right","middle",3791.59999999404
"5b5ecd4b7757ed000198d434",1,"Sink",4,"Can",3,"Zipper",5,TRUE,FALSE,FALSE,"middle","middle",FALSE,TRUE,"left","[""middle"",""right""]",5681.79999999702,0,20,FALSE,TRUE,93,1596.59999999404,0,0,0,0,10,TRUE,FALSE,FALSE,"middle","middle",4029.79999999702
"62b1a5075f423b00f1d16e07",1,"Flower",4,"Tissue",1,"Slide",2,FALSE,TRUE,FALSE,"left","middle",FALSE,TRUE,"left","[""middle"",""right""]",2148.79999999702,0,20,FALSE,FALSE,80,1128.60000000149,0,0,0,1,15,TRUE,FALSE,FALSE,"middle","middle",1348.5
"676572d1818b3b26ca9f6ce2",1,"Candle",4,"Teapot",4,"Brush",2,FALSE,FALSE,TRUE,"middle","right",FALSE,TRUE,"left","[""middle"",""right""]",10172.1999999881,0,15,FALSE,TRUE,81,2676.90000000596,0,0,0,0,30,FALSE,FALSE,TRUE,"middle","right",7029.40000000596
"652359572fd30ff57dfea7fb",1,"Bananas",4,"Square",1,"Marker",1,TRUE,FALSE,FALSE,"left","left",TRUE,TRUE,"right","[""left"",""middle""]",2199.69999998808,0,20,FALSE,TRUE,97,2074.20000001788,0,0,0,0,40,TRUE,FALSE,FALSE,"left","left",2402.80000001192
"5e0fdde8b638537085d51b6c",1,"Bottle",5,"Fly",1,"Scooter",2,FALSE,FALSE,TRUE,"left","middle",FALSE,TRUE,"right","[""left"",""middle""]",4090,0,6,FALSE,TRUE,16,1920.20000004768,0,0,0,0,6,FALSE,FALSE,TRUE,"left","middle",5876.29999995232
"5b3e2334cdb4ce0001d93c51",1,"Corn",2,"Octopus",5,"Meat",2,FALSE,TRUE,FALSE,"left","right",FALSE,TRUE,"left","[""middle"",""right""]",2917.19999999553,0,9,FALSE,TRUE,100,1609.10000000149,0,0,0,0,17,FALSE,TRUE,FALSE,"left","right",3694
"5d76ac914c93440001c03fd7",1,"Bucket",5,"Grapes",5,"Bowl",4,TRUE,FALSE,FALSE,"middle","middle",TRUE,TRUE,"left","[""middle"",""right""]",3327.69999998808,0,13,FALSE,TRUE,100,1293.89999997616,0,0,0,0,48,TRUE,FALSE,FALSE,"middle","middle",5533.09999996424
"572bcdbb34b25a0010ddd977",1,"Owl",3,"Wagon",4,"Teddy Bear",2,FALSE,FALSE,TRUE,"left","middle",FALSE,TRUE,"right","[""left"",""middle""]",5777.69999999925,0,30,TRUE,TRUE,2,1120.80000000075,0,0,0,0,34,FALSE,FALSE,TRUE,"left","middle",3569.69999999925
"676443cee5ece5f979de2bd2",1,"Crackers",2,"Toothbrush",1,"Bubbles",1,FALSE,FALSE,TRUE,"right","middle",FALSE,TRUE,"left","[""middle"",""right""]",6978.20000004768,0,14,FALSE,FALSE,73,2361.80000007153,0,0,0,0,16,TRUE,FALSE,FALSE,"middle","middle",3422.19999992847
"60cfcb4c402bc3a7ff5d8f3d",1,"Paints",2,"Backpack",1,"Circle",5,TRUE,FALSE,FALSE,"right","right",FALSE,TRUE,"left","[""middle"",""right""]",5834.99999999997,0,20,FALSE,TRUE,82,3210.99999999994,0,0,1,0,38,TRUE,FALSE,FALSE,"right","right",2527
"5da640b9640c5d00133f384b",1,"Pig",1,"Rope",3,"Bracelet",4,FALSE,FALSE,TRUE,"right","middle",FALSE,TRUE,"left","[""middle"",""right""]",3368.5,0,22,FALSE,TRUE,100,2575.09999996424,0,0,0,0,35,FALSE,FALSE,TRUE,"right","middle",8127.19999998808
"5d951ede9b6f880018f63b6e",1,"Princess",3,"Moon",2,"Mirror",2,TRUE,FALSE,FALSE,"left","left",FALSE,TRUE,"right","[""left"",""middle""]",2529,0,28,FALSE,TRUE,100,1293,0,0,0,0,17,TRUE,FALSE,FALSE,"left","left",1019
"66c20b634a3b292d25596fbc",1,"Iron",3,"Glove",2,"Teeth",4,TRUE,FALSE,FALSE,"left","left",FALSE,TRUE,"right","[""left"",""middle""]",8249.59999990463,0,10,FALSE,FALSE,59,2126.20000004768,0,0,1,0,3,FALSE,FALSE,TRUE,"middle","left",5541.5
"5f035c7ce9d86254e87992e4",1,"Grass",2,"Chair",4,"Rope",5,TRUE,FALSE,FALSE,"middle","middle",FALSE,TRUE,"left","[""middle"",""right""]",4275.90000009537,0,21,TRUE,TRUE,100,1955.5,0,0,1,0,31,TRUE,FALSE,FALSE,"middle","middle",5219.89999985695
"5c73d2817ed3a70001fc2929",1,"Duck",3,"Train",5,"Sunglasses",3,FALSE,TRUE,FALSE,"left","right",FALSE,TRUE,"left","[""middle"",""right""]",4786.79999995232,0,14,FALSE,FALSE,19,4424.79999995232,0,0,0,0,10,FALSE,FALSE,TRUE,"middle","right",1980.10000014305
"6367a6adb376bcde64f98559",1,"Suitcase",2,"Curtain",4,"Magazine",4,FALSE,FALSE,TRUE,"right","left",FALSE,TRUE,"middle","[""left"",""right""]",4720.59999996424,0,13,FALSE,TRUE,73,2732.90000003576,0,0,0,0,16,FALSE,FALSE,TRUE,"right","left",4912.69999998808
"67e069199f5b036960b0cc5f",1,"Cheese",1,"Radio",4,"Nest",2,FALSE,FALSE,TRUE,"middle","right",FALSE,TRUE,"left","[""middle"",""right""]",13314.6999999993,0,20,TRUE,FALSE,80,3504.69999999925,0,0,0,0,16,FALSE,TRUE,FALSE,"left","right",6178.80000000075
"66661b1242b581f199e49f4c",1,"Net",1,"Pants",5,"Crown",5,FALSE,FALSE,TRUE,"right","left",FALSE,TRUE,"middle","[""left"",""right""]",12725.6000001431,0,30,TRUE,TRUE,97,3666.20000004768,0,0,0,0,25,FALSE,FALSE,TRUE,"right","left",2263.20000004768
"66676a7edec232f186836137",1,"Train",4,"Bucket",1,"Blanket",2,TRUE,FALSE,FALSE,"left","left",FALSE,TRUE,"middle","[""left"",""right""]",3410.69999998808,0,28,FALSE,TRUE,49,1922.80000001192,0,0,0,0,43,TRUE,FALSE,FALSE,"left","left",5078.5
"682ac1b6669fa157b2399b41",1,"Video Tape",4,"Pig",1,"Fingers",5,TRUE,FALSE,FALSE,"middle","middle",FALSE,TRUE,"right","[""left"",""middle""]",3673.79999995232,0,30,FALSE,FALSE,30,3548.29999995232,0,0,1,0,30,FALSE,FALSE,TRUE,"left","middle",2844.5
"6658c4239af9537eefdfbcc9",1,"Slide",1,"Train",1,"Duck",4,TRUE,FALSE,FALSE,"right","right",FALSE,TRUE,"left","[""middle"",""right""]",2048.39999997616,0,18,FALSE,TRUE,82,2147.39999997616,0,0,0,0,36,TRUE,FALSE,FALSE,"right","right",1998.89999997616
"5a993b151eda410001365a23",1,"Stick",2,"Horse",1,"Refrigerator",4,FALSE,TRUE,FALSE,"right","left",FALSE,TRUE,"right","[""left"",""middle""]",7336.90000003576,0,13,FALSE,TRUE,65,4502.5,0,0,0,0,33,FALSE,TRUE,FALSE,"right","left",3668
"66a90c2263a2823be078178e",1,"Phone",4,"Slinky",4,"Pot",5,FALSE,FALSE,TRUE,"middle","right",FALSE,TRUE,"left","[""middle"",""right""]",4040,0,13,FALSE,TRUE,36,2231,0,0,0,0,20,FALSE,FALSE,TRUE,"middle","right",5115
"665d3b8935ef56ce74c4761f",1,"Cookies",3,"Grass",1,"Squirrel",2,TRUE,FALSE,FALSE,"left","left",FALSE,TRUE,"middle","[""left"",""right""]",5500.2999997139,0,16,FALSE,TRUE,31,4754.59999990463,0,0,0,0,18,TRUE,FALSE,FALSE,"left","left",2496.30000019073
"6792ae75a1d32bb9534a819f",2,"Rain",2,"Fork",3,"Leaf",4,TRUE,FALSE,FALSE,"middle","middle",FALSE,TRUE,"right","[""left"",""middle""]",4140.70000000298,0,19,FALSE,FALSE,77,2442.29999999702,0,0,0,0,30,FALSE,TRUE,FALSE,"right","middle",4858.40000000596
"5e3f04fdb721da159417a725",2,"Lizard",1,"Bowl",1,"Hanger",5,FALSE,FALSE,TRUE,"right","middle",FALSE,TRUE,"left","[""middle"",""right""]",2802.30000000075,0,10,FALSE,TRUE,68,2146.80000000075,0,0,0,0,18,FALSE,FALSE,TRUE,"right","middle",2694.90000000224
"670e09973d94a59502e84783",2,"Hammer",4,"Cheese",3,"Elephant",4,FALSE,TRUE,FALSE,"right","left",FALSE,TRUE,"right","[""left"",""middle""]",1846.70000004768,0,20,FALSE,FALSE,49,773.900000095367,0,0,0,0,39,TRUE,FALSE,FALSE,"left","left",2253.19999980927
"66f5e385ef9ec0b27c796a5c",2,"Rope",5,"Hat",3,"Hands",5,FALSE,FALSE,TRUE,"middle","left",FALSE,TRUE,"right","[""left"",""middle""]",1922,0,23,FALSE,TRUE,9,1338.20000004768,0,0,0,0,20,FALSE,FALSE,TRUE,"middle","left",2485.30000007153
"664f74aec5c6e6331cd6e860",2,"Teapot",1,"Bear",1,"Nose",1,FALSE,TRUE,FALSE,"right","middle",FALSE,TRUE,"right","[""left"",""middle""]",10787.3000001907,0,20,FALSE,FALSE,32,4396.59999990463,0,0,0,0,35,TRUE,FALSE,FALSE,"middle","middle",11189.7000000477
"5c28b31a0091e40001ca5030",2,"Fish",2,"Comb",3,"Cable",2,FALSE,FALSE,TRUE,"middle","left",FALSE,TRUE,"right","[""left"",""middle""]",4405,0,33,FALSE,FALSE,31,2372,0,0,0,0,39,TRUE,FALSE,FALSE,"left","left",8846
"676580fa5bded2910a43ed67",2,"Eggs",5,"Frog",5,"CD",4,FALSE,FALSE,TRUE,"middle","right",FALSE,TRUE,"left","[""middle"",""right""]",2126,0,22,FALSE,TRUE,70,1246,0,0,0,0,29,FALSE,FALSE,TRUE,"middle","right",2778
"60e0dc6be0772b7dfdad9b2c",2,"Cherry",5,"Rope",1,"Turtle",2,TRUE,FALSE,FALSE,"left","left",TRUE,TRUE,"middle","[""left"",""right""]",1949.39999997616,0,16,FALSE,TRUE,44,1396.29999995232,0,0,0,0,35,TRUE,FALSE,FALSE,"left","left",2385.19999992847
"63f77a5dde1ea03305e119e0",2,"Cereal",5,"Clown",1,"Jump rope",1,TRUE,FALSE,FALSE,"middle","middle",FALSE,TRUE,"right","[""left"",""middle""]",5879.7,0,28,TRUE,TRUE,52,1367,0,0,0,0,41,TRUE,FALSE,FALSE,"middle","middle",2529.20000000001
"5cafc17ace1fa80017a20d6b",2,"Button",2,"Iron",2,"Giraffe",2,FALSE,TRUE,FALSE,"middle","right",FALSE,TRUE,"middle","[""left"",""right""]",5443.40000000596,0,28,TRUE,FALSE,62,885.79999999702,0,0,0,0,32,FALSE,FALSE,TRUE,"left","right",3634.30000001192
"66854f18db63152992b1a81e",2,"Money",3,"Toothbrush",4,"Tongue",1,TRUE,FALSE,FALSE,"middle","middle",FALSE,TRUE,"right","[""left"",""middle""]",1727.69999999925,0,7,FALSE,TRUE,65,1370.40000000224,0,0,0,0,4,TRUE,FALSE,FALSE,"middle","middle",2499.69999999925
"66537b0010ca11939058e52b",2,"Iron",2,"Elephant",4,"Spaghetti",3,FALSE,TRUE,FALSE,"middle","right",FALSE,TRUE,"middle","[""left"",""right""]",2884.39999997616,0,21,FALSE,TRUE,37,1947.80000007153,0,0,0,0,19,FALSE,TRUE,FALSE,"middle","right",3638
"669eb709554e753adddffe01",2,"Lizard",4,"Toilet",5,"Bucket",5,TRUE,FALSE,FALSE,"middle","middle",FALSE,TRUE,"left","[""middle"",""right""]",4115.5,0,20,TRUE,TRUE,86,1196.29999995232,0,0,0,0,30,TRUE,FALSE,FALSE,"middle","middle",4339.10000014305
"59dd90f6e75b450001a68dac",2,"Juice",3,"Slide",5,"Dog",2,TRUE,FALSE,FALSE,"middle","middle",FALSE,TRUE,"left","[""middle"",""right""]",4856.39999997616,0,32,TRUE,TRUE,98,873.399999976158,0,0,0,0,40,TRUE,FALSE,FALSE,"middle","middle",2973.89999997616
"5e121701dc79bd8a1a22ca99",2,"Chalk",2,"Leg",5,"Moon",2,FALSE,FALSE,TRUE,"right","middle",FALSE,TRUE,"left","[""middle"",""right""]",4939.79999995232,0,18,FALSE,TRUE,80,1536.90000009537,0,1,1,0,25,FALSE,FALSE,TRUE,"right","middle",2429.10000014305
"5fd393664d8c020163cb3ef2",2,"Bacon",2,"Pot",4,"Elbow",4,FALSE,FALSE,TRUE,"left","middle",FALSE,TRUE,"right","[""left"",""middle""]",1869.60000000149,0,15,FALSE,TRUE,99,11545,0,0,0,0,35,FALSE,FALSE,TRUE,"left","middle",3472.20000000298
"5c4d8d706b23ab0001a34af2",2,"Sun",3,"Stamps",1,"Diaper",1,FALSE,FALSE,TRUE,"middle","right",FALSE,TRUE,"left","[""middle"",""right""]",2704.19999999925,0,20,FALSE,TRUE,65,1143.30000000075,0,0,0,0,15,FALSE,FALSE,TRUE,"middle","right",3588
"6142013d4dd8ae5ca2b4329b",2,"Squirrel",4,"Waffle",4,"Soup",5,TRUE,FALSE,FALSE,"left","left",FALSE,TRUE,"middle","[""left"",""right""]",3349.60000014305,0,20,FALSE,TRUE,57,1736.20000004768,0,0,0,0,15,TRUE,FALSE,FALSE,"left","left",3997.70000004768
"67c5d7d4bfda0ffd6d9a5ef8",2,"Fries",2,"Plate",3,"Clown",3,TRUE,FALSE,FALSE,"middle","middle",FALSE,TRUE,"right","[""left"",""middle""]",2897.00000000001,0,18,FALSE,TRUE,26,1362,0,0,0,0,13,TRUE,FALSE,FALSE,"middle","middle",2291
"64a9858be9b52e570ffb3c1e",2,"Umbrella",2,"Cow",5,"Cupcake",2,FALSE,TRUE,FALSE,"left","right",FALSE,TRUE,"left","[""middle"",""right""]",7836,0,35,TRUE,FALSE,98,908,0,0,0,0,30,TRUE,FALSE,FALSE,"right","right",5341
"5c0873675b32d500012e3f2c",2,"Stamps",5,"Sun",4,"Apples",3,TRUE,FALSE,FALSE,"right","right",TRUE,TRUE,"middle","[""left"",""right""]",2333,0,18,FALSE,TRUE,98,1914,0,0,0,0,38,TRUE,FALSE,FALSE,"right","right",3259
"5ecf5a78ba30501d2ca5e34b",2,"Yogurt",1,"Bell",5,"Bead",5,TRUE,FALSE,FALSE,"middle","middle",FALSE,TRUE,"left","[""middle"",""right""]",2665.40000000596,0,20,TRUE,FALSE,46,1232.10000000894,0,0,0,0,15,FALSE,FALSE,TRUE,"right","middle",2915.59999999404
"60461bfeeac81b04cf62f7a6",2,"Tape",4,"Cat",3,"Bone",1,FALSE,FALSE,TRUE,"middle","left",FALSE,TRUE,"right","[""left"",""middle""]",2249,0,10,FALSE,TRUE,98,3477,0,0,1,0,10,FALSE,FALSE,TRUE,"middle","left",6081
"67803b5508f3d995ef13696b",2,"Hose",5,"Clown",1,"Stool",5,TRUE,FALSE,FALSE,"left","left",FALSE,TRUE,"right","[""left"",""middle""]",1902.10000000149,0,15,TRUE,TRUE,37,2066,0,0,0,0,20,TRUE,FALSE,FALSE,"left","left",2996.10000000149
"6053e01a6a8e8516ba7d47a7",2,"Blanket",5,"Apples",2,"Pool",4,TRUE,FALSE,FALSE,"middle","middle",TRUE,TRUE,"right","[""left"",""middle""]",2424.89999999851,0,17,FALSE,TRUE,100,2076.80000000447,0,0,0,0,22,TRUE,FALSE,FALSE,"middle","middle",12610.299999997
"5f1088e27a43fe0c64ca5814",2,"Ostrich",2,"TV",3,"Books",2,FALSE,TRUE,FALSE,"middle","left",FALSE,TRUE,"middle","[""left"",""right""]",3176.89999997616,0,10,FALSE,TRUE,51,1102.79999995232,0,0,0,0,8,FALSE,TRUE,FALSE,"middle","left",3415.5
"5e787106a9d3b53ee4281eb1",2,"Soda",2,"Coloring Book",3,"Hips",2,FALSE,FALSE,TRUE,"middle","right",FALSE,TRUE,"left","[""middle"",""right""]",1441,0,21,FALSE,TRUE,63,1251,0,0,0,0,37,FALSE,FALSE,TRUE,"middle","right",2374
"5de3c83c2033793be6591e53",2,"Cloud",4,"Milk",5,"Shovel",1,FALSE,FALSE,TRUE,"middle","right",FALSE,TRUE,"left","[""middle"",""right""]",2075.20000000298,0,15,FALSE,TRUE,25,867.70000000298,0,0,0,0,15,FALSE,FALSE,TRUE,"middle","right",33577.299999997
"5b681788ca518a0001c7a755",2,"Balls",2,"Shampoo",3,"Sunglasses",2,FALSE,FALSE,TRUE,"middle","left",FALSE,TRUE,"right","[""left"",""middle""]",2557.90000009537,0,15,FALSE,TRUE,55,706.900000095367,0,0,0,0,35,FALSE,FALSE,TRUE,"middle","left",2277
"5c4f5967aac8be0001716a65",2,"Tummy",3,"Bag",2,"Hair",3,TRUE,FALSE,FALSE,"right","right",FALSE,TRUE,"middle","[""left"",""right""]",2180.40000000596,0,17,FALSE,FALSE,51,828.60000000149,0,0,1,0,40,FALSE,FALSE,TRUE,"left","right",4189.89999999851
"664c9ccdfb4921f641e9ff91",2,"Hat",3,"Ear",4,"Sandwich",3,FALSE,FALSE,TRUE,"middle","left",FALSE,TRUE,"right","[""left"",""middle""]",2714.80000000075,0,20,FALSE,FALSE,9,1496.5,0,0,0,0,40,TRUE,FALSE,FALSE,"left","left",4567.89999999851
"6151556ef73ba765c7ff55f6",2,"Eyes",2,"Teapot",5,"Cookies",1,FALSE,TRUE,FALSE,"left","right",FALSE,TRUE,"left","[""middle"",""right""]",3025.79999999702,0,22,TRUE,FALSE,49,1567.79999999702,0,0,1,0,14,FALSE,FALSE,TRUE,"middle","right",3596.5
"681b781064a5701a5ceee3bc",2,"Window",2,"Earring",1,"Oranges",2,TRUE,FALSE,FALSE,"right","right",TRUE,TRUE,"left","[""middle"",""right""]",2025.7999997139,0,18,TRUE,TRUE,98,1738,0,0,0,0,33,TRUE,FALSE,FALSE,"right","right",1779.10000038147
"6693a6ffc58de3bb9c5341de",2,"Chair",3,"Swing",4,"Cow",3,TRUE,FALSE,FALSE,"middle","middle",FALSE,TRUE,"right","[""left"",""middle""]",3018.5,0,23,TRUE,TRUE,78,838.899999976158,0,0,0,0,36,TRUE,FALSE,FALSE,"middle","middle",1786.70000004768
"5ca6717bb54fe60001e22441",2,"Sheep",1,"Whistle",4,"Cable",5,FALSE,TRUE,FALSE,"right","middle",FALSE,TRUE,"right","[""left"",""middle""]",3190.79999999702,0,14,TRUE,FALSE,34,1986.69999999553,0,0,0,0,25,TRUE,FALSE,FALSE,"middle","middle",2169.39999999851
"673e2923ed2dd1f79b63d19d",2,"Monkey",5,"Elephant",5,"Ghost",5,TRUE,FALSE,FALSE,"middle","middle",FALSE,TRUE,"right","[""left"",""middle""]",3469.60000002384,0,25,TRUE,TRUE,100,1858.20000004768,0,0,0,0,35,TRUE,FALSE,FALSE,"middle","middle",1709.20000004768
"669677d986a5a20026bbf20e",2,"Comb",2,"Movie",4,"Battery",4,FALSE,TRUE,FALSE,"left","middle",FALSE,TRUE,"left","[""middle"",""right""]",2333.20000000298,0,18,FALSE,TRUE,2,1248.89999999851,0,0,0,0,15,FALSE,TRUE,FALSE,"left","middle",4430.29999999702
"62fccb9647eb07d62e9b6baa",2,"Bag",5,"Sunglasses",2,"Shoulders",2,FALSE,TRUE,FALSE,"left","middle",FALSE,TRUE,"left","[""middle"",""right""]",3400.70000004768,0,37,TRUE,FALSE,75,2093.89999997616,0,0,0,0,30,TRUE,FALSE,FALSE,"middle","middle",5721
"56d56e550b5634000bdc5703",2,"Pizza",5,"Fingers",2,"Clock",1,FALSE,TRUE,FALSE,"left","right",FALSE,TRUE,"left","[""middle"",""right""]",5480.40000000002,0,22,TRUE,TRUE,22,2076.69999999995,0,0,0,0,27,FALSE,TRUE,FALSE,"left","right",9869.30000000005
"631610af8e747093cd90e00d",2,"Wheel",4,"Feet",4,"Square",4,FALSE,FALSE,TRUE,"left","middle",FALSE,TRUE,"right","[""left"",""middle""]",2021.30000001192,0,17,FALSE,FALSE,18,797.899999976158,0,0,0,0,30,TRUE,FALSE,FALSE,"middle","middle",4036.70000004768
"667be3b3495a08369501bcbb",2,"Moon",1,"Doughnut",1,"Phone",5,TRUE,FALSE,FALSE,"right","right",FALSE,TRUE,"middle","[""left"",""right""]",4131.10000000056,0,20,FALSE,FALSE,79,1249.39999999944,0,0,0,0,19,FALSE,TRUE,FALSE,"middle","right",2745.29999999981
"6730f2e20f5915ff4ad2c07d",2,"String",1,"Skateboard",2,"Glue",2,FALSE,FALSE,TRUE,"middle","right",FALSE,TRUE,"left","[""middle"",""right""]",2008.2000002861,0,17,TRUE,TRUE,0,1194.40000009537,0,0,0,1,16,FALSE,FALSE,TRUE,"middle","right",6289
"5d8cef3c28e183001a335ab0",2,"Hot Dog",3,"Pajamas",2,"Kangaroo",5,FALSE,FALSE,TRUE,"left","middle",FALSE,TRUE,"right","[""left"",""middle""]",2302.30000019073,0,12,FALSE,FALSE,98,1232.90000009537,0,0,0,0,22,FALSE,TRUE,FALSE,"right","middle",3285.90000009537
"664ccdd7d581711cd0c36f2b",2,"Elbow",4,"Carrots",3,"Nest",1,FALSE,FALSE,TRUE,"left","right",FALSE,TRUE,"middle","[""left"",""right""]",2226.39999999991,0,20,FALSE,FALSE,0,815.399999999907,0,0,0,0,6,FALSE,TRUE,FALSE,"middle","right",38554
"68a5eefd236f1c08d08ffce6",2,"TV",1,"Tricycle",3,"Ladder",2,FALSE,TRUE,FALSE,"middle","right",FALSE,TRUE,"middle","[""left"",""right""]",2478.80000001192,0,20,FALSE,TRUE,78,2060.20000001788,0,0,0,0,25,FALSE,TRUE,FALSE,"middle","right",3779.5
"5aafd9eff69e940001d88bf4",2,"Mirror",5,"Stars",5,"Gorilla",3,FALSE,TRUE,FALSE,"middle","left",FALSE,TRUE,"middle","[""left"",""right""]",3178,0,21,FALSE,TRUE,0,1513,0,0,0,0,12,FALSE,TRUE,FALSE,"middle","left",5716
"5a0c4184fe645f0001e9f5dd",2,"Bandaid",5,"Cloud",5,"Keys",1,FALSE,TRUE,FALSE,"middle","right",FALSE,TRUE,"middle","[""left"",""right""]",1985.19999999995,0,15,FALSE,FALSE,0,959.800000000279,0,0,0,0,10,TRUE,FALSE,FALSE,"right","right",7277
"5f08e3eda7b89d16266b0cdf",2,"Fish",5,"Juice",4,"Chopsticks",4,FALSE,FALSE,TRUE,"middle","right",FALSE,TRUE,"left","[""middle"",""right""]",2500,0,8,TRUE,TRUE,50,2610,0,0,0,0,30,FALSE,FALSE,TRUE,"middle","right",3237
"66b507cc1a7e164991afbe17",2,"Bandaid",5,"Microphone",2,"Nest",3,FALSE,FALSE,TRUE,"middle","right",FALSE,TRUE,"left","[""middle"",""right""]",3483.40000000596,1,33,FALSE,TRUE,75,1949.89999999106,0,0,0,0,25,FALSE,FALSE,TRUE,"middle","right",4310.19999998808
"5e459f61418f610891628564",2,"Sheep",4,"Pool",5,"Chair",1,FALSE,FALSE,TRUE,"left","middle",FALSE,TRUE,"right","[""left"",""middle""]",3377,0,16,FALSE,FALSE,69,1141.79999923706,0,0,0,0,40,TRUE,FALSE,FALSE,"middle","middle",2377.0999994278
"58c4ff360f0c150001ed45a4",2,"Bone",3,"Monkey",5,"Fingernail",4,TRUE,FALSE,FALSE,"right","right",FALSE,TRUE,"left","[""middle"",""right""]",2772,1,30,FALSE,TRUE,0,1353.59999999404,0,0,0,0,20,TRUE,FALSE,FALSE,"right","right",2224.5
"6658e2cb395c02efada6a7a1",2,"Blocks",5,"Rope",4,"Tummy",4,FALSE,TRUE,FALSE,"left","middle",FALSE,TRUE,"left","[""middle"",""right""]",5250.60000000894,0,12,TRUE,FALSE,35,2045.5,0,0,0,0,13,FALSE,FALSE,TRUE,"right","middle",4695
"6614fb6af3c5aa23b962ea2d",2,"Cherry",4,"Knife",3,"Knee",2,FALSE,FALSE,TRUE,"middle","left",TRUE,TRUE,"right","[""left"",""middle""]",2283,0,10,FALSE,TRUE,2,1433.30000000075,0,0,0,0,5,FALSE,FALSE,TRUE,"middle","left",2258.5
"6329c13285c93cafdf51ed77",2,"Cookies",3,"Swing",2,"Bandaid",1,TRUE,FALSE,FALSE,"left","left",FALSE,TRUE,"right","[""left"",""middle""]",3207.10000000149,0,21,FALSE,TRUE,54,1585.79999999888,0,0,0,0,17,TRUE,FALSE,FALSE,"left","left",2679
"6697cf02d714e7ee3fdedcec",2,"Fries",5,"Wheel",5,"Suitcase",4,TRUE,FALSE,FALSE,"middle","middle",FALSE,TRUE,"left","[""middle"",""right""]",2652.20000004768,0,20,FALSE,FALSE,63,1554.29999995232,0,0,0,0,15,FALSE,TRUE,FALSE,"left","middle",2813.19999992847
"678f6e1f6a3d68ee8c1533f5",2,"Wagon",3,"Arm",4,"Feet",2,FALSE,TRUE,FALSE,"left","right",FALSE,TRUE,"left","[""middle"",""right""]",2964.90000000596,0,10,FALSE,TRUE,18,1513.69999998808,0,0,0,0,15,FALSE,TRUE,FALSE,"left","right",6988.39999999106
"63f7ac13d942e94c18c92d4b",2,"Meat",1,"Mouse",5,"Tricycle",4,FALSE,FALSE,TRUE,"right","middle",FALSE,TRUE,"left","[""middle"",""right""]",3980.5,0,16,TRUE,FALSE,38,1294.20000004768,0,0,0,0,20,FALSE,TRUE,FALSE,"left","middle",4851.70000004768
"60eda0b5e8f579f6a73d0f6b",2,"Grass",5,"Stairs",4,"Doughnut",5,TRUE,FALSE,FALSE,"middle","middle",FALSE,TRUE,"left","[""middle"",""right""]",2918.79999995232,0,15,FALSE,TRUE,65,2661.70000004768,0,0,0,0,8,TRUE,FALSE,FALSE,"middle","middle",5306.10000002384
"5b52f4933234ab00014ca442",2,"Spider",4,"Teeth",5,"Mirror",5,TRUE,FALSE,FALSE,"left","left",FALSE,TRUE,"middle","[""left"",""right""]",1898.29999995232,0,18,FALSE,TRUE,100,1353.69999980927,0,0,0,0,42,TRUE,FALSE,FALSE,"left","left",2076.29999995232
"639844d5b2757a6f6377a69b",2,"Radio",5,"Rainbow",2,"Grass",2,FALSE,TRUE,FALSE,"right","middle",FALSE,TRUE,"right","[""left"",""middle""]",2266.39999997616,0,28,FALSE,TRUE,67,1423.10000002384,0,0,0,0,26,FALSE,TRUE,FALSE,"right","middle",1952.5
"629f6b8c65fcae219e245284",2,"TV",4,"Airplane",4,"Microphone",5,TRUE,FALSE,FALSE,"right","right",FALSE,TRUE,"middle","[""left"",""right""]",1897.90000000224,0,31,TRUE,TRUE,100,564.699999999255,0,0,0,0,35,TRUE,FALSE,FALSE,"right","right",1776.80000000075
"5fda057989ec4c35a700f69f",2,"Gorilla",3,"Clock",1,"Elbow",4,FALSE,TRUE,FALSE,"middle","right",FALSE,TRUE,"middle","[""left"",""right""]",4105.69999992847,0,23,FALSE,TRUE,0,1035,0,0,0,0,15,FALSE,TRUE,FALSE,"middle","right",7347.5
"63d4315d46c8643186d488f7",2,"Bone",1,"Newspaper",1,"Backpack",1,FALSE,FALSE,TRUE,"right","middle",FALSE,TRUE,"left","[""middle"",""right""]",3706.30000000075,0,18,FALSE,TRUE,15,1593.79999999702,0,0,0,0,21,FALSE,FALSE,TRUE,"right","middle",3960.59999999776
"558fd02cfdf99b39cb035e5d",2,"Apples",4,"Boat",3,"Cow",4,TRUE,FALSE,FALSE,"left","left",TRUE,TRUE,"middle","[""left"",""right""]",1104,0,16,FALSE,TRUE,100,1676,0,0,0,0,11,TRUE,FALSE,FALSE,"left","left",1597
"66cbc2627559d53c0e3e4ac4",2,"Cheese",5,"Ring",1,"Duck",3,TRUE,FALSE,FALSE,"left","left",FALSE,TRUE,"middle","[""left"",""right""]",2104.5,0,22,TRUE,TRUE,67,1528.10000000894,0,0,0,0,40,TRUE,FALSE,FALSE,"left","left",2831.40000000596
"6762d29bf8f9712a46c73b62",2,"Juice",5,"Bubbles",3,"Lamp",5,TRUE,FALSE,FALSE,"left","left",FALSE,TRUE,"middle","[""left"",""right""]",2285.69999999925,0,32,TRUE,TRUE,97,1861.80000000075,0,0,0,0,27,TRUE,FALSE,FALSE,"left","left",2668.5
"627a76b96bea55210aecbba9",2,"Door",1,"Mirror",3,"Boots",2,FALSE,FALSE,TRUE,"middle","left",FALSE,TRUE,"right","[""left"",""middle""]",2299.29999998212,0,10,FALSE,TRUE,87,1064.19999998808,0,0,0,0,40,FALSE,FALSE,TRUE,"middle","left",2750.30000001192
"5cc53cf3291607001757c712",2,"Cereal",3,"Taco",5,"Jump rope",1,FALSE,FALSE,TRUE,"right","middle",FALSE,TRUE,"left","[""middle"",""right""]",4575,0,25,FALSE,FALSE,47,1613.90000003576,0,0,0,0,18,TRUE,FALSE,FALSE,"middle","middle",4704.89999997616
"608ab6edcbea5439dc2f537e",2,"Cherry",5,"Cupcake",4,"Train",2,TRUE,FALSE,FALSE,"left","left",TRUE,TRUE,"middle","[""left"",""right""]",1392.19999999925,0,31,FALSE,TRUE,100,724.5,0,0,0,0,23,TRUE,FALSE,FALSE,"left","left",1596.10000000149
"5ee0edcb962eba464f486b40",2,"Head",3,"Pudding",1,"Pot",1,FALSE,TRUE,FALSE,"middle","left",FALSE,TRUE,"middle","[""left"",""right""]",3187,0,19,TRUE,TRUE,29,2308.29999999702,0,0,1,0,27,FALSE,TRUE,FALSE,"middle","left",4605.60000000894
"55848744fdf99b574f55ada0",2,"Hose",2,"Cloud",1,"Net",1,FALSE,FALSE,TRUE,"middle","left",FALSE,TRUE,"right","[""left"",""middle""]",5405.29999995232,0,19,FALSE,TRUE,20,1174.20000004768,0,0,0,0,10,FALSE,FALSE,TRUE,"middle","left",2718.40000009537
"59fabb7e38ed430001be6965",2,"Shoulders",3,"Bone",3,"Crayons",1,FALSE,TRUE,FALSE,"middle","right",FALSE,TRUE,"middle","[""left"",""right""]",2502,0,15,FALSE,TRUE,31,1412.40000000037,0,0,0,0,8,FALSE,TRUE,FALSE,"middle","right",3327.39999999991
"65c347be7d456f4e0902823d",2,"Eyes",5,"Box",3,"Bridge",1,TRUE,FALSE,FALSE,"middle","middle",FALSE,TRUE,"right","[""left"",""middle""]",3231.20000000298,0,22,FALSE,TRUE,47,1915.5,0,0,0,0,26,TRUE,FALSE,FALSE,"middle","middle",9242.10000000894
"66635ce30892c73e41fee639",2,"Pillow",5,"Sandals",5,"Bee",4,TRUE,FALSE,FALSE,"left","left",FALSE,TRUE,"right","[""left"",""middle""]",2875,0,22,FALSE,TRUE,27,1943.89999985695,0,0,0,0,36,TRUE,FALSE,FALSE,"left","left",3043.5
"58a43e029a17120001d910d5",2,"Soda",1,"CD",1,"Diaper",3,FALSE,TRUE,FALSE,"right","left",FALSE,TRUE,"right","[""left"",""middle""]",2747.69999885559,0,11,FALSE,TRUE,84,1253.59999847412,0,0,0,0,12,FALSE,TRUE,FALSE,"right","left",2181.89999961853
"63af557b3d4f219c3226b7d6",2,"Movie",2,"Button",2,"Teddy Bear",2,FALSE,FALSE,TRUE,"right","middle",FALSE,TRUE,"left","[""middle"",""right""]",3019.90000000596,0,18,TRUE,TRUE,30,1598.59999999404,0,0,0,0,9,FALSE,FALSE,TRUE,"right","middle",3161.09999999404
"5b5ecd4b7757ed000198d434",2,"Newspaper",1,"Fence",5,"Fire",1,FALSE,TRUE,FALSE,"left","right",FALSE,TRUE,"left","[""middle"",""right""]",3168.70000000298,0,20,FALSE,FALSE,59,1245.89999999106,0,0,0,0,10,FALSE,FALSE,TRUE,"middle","right",3641.19999998808
"62b1a5075f423b00f1d16e07",2,"Bike",5,"Bug",1,"Pot",5,TRUE,FALSE,FALSE,"middle","middle",FALSE,TRUE,"left","[""middle"",""right""]",1440.90000000224,0,20,FALSE,FALSE,80,950.300000000745,0,0,0,1,15,FALSE,TRUE,FALSE,"left","middle",946.199999999255
"676572d1818b3b26ca9f6ce2",2,"Moon",3,"Pudding",3,"Snow",4,FALSE,TRUE,FALSE,"left","middle",FALSE,TRUE,"left","[""middle"",""right""]",4764,0,15,FALSE,TRUE,74,1287.59999999404,0,0,0,0,30,FALSE,TRUE,FALSE,"left","middle",3342
"652359572fd30ff57dfea7fb",2,"Knee",5,"Mouth",5,"Doughnut",1,TRUE,FALSE,FALSE,"middle","middle",FALSE,TRUE,"right","[""left"",""middle""]",4870.60000002384,0,20,FALSE,TRUE,96,1057.90000000596,0,0,0,0,40,TRUE,FALSE,FALSE,"middle","middle",1886.80000001192
"5e0fdde8b638537085d51b6c",2,"Balls",3,"Pear",2,"Cloud",3,TRUE,FALSE,FALSE,"middle","middle",TRUE,TRUE,"right","[""left"",""middle""]",1243.89999997616,0,6,FALSE,FALSE,11,1031.89999997616,0,0,0,0,6,FALSE,TRUE,FALSE,"right","middle",2123.5
"5b3e2334cdb4ce0001d93c51",2,"TV",4,"Bottle",4,"Ice Cream",4,TRUE,FALSE,FALSE,"right","right",FALSE,TRUE,"left","[""middle"",""right""]",3517.10000000149,0,9,FALSE,TRUE,39,1490.10000000149,0,0,0,0,17,TRUE,FALSE,FALSE,"right","right",9582
"5d76ac914c93440001c03fd7",2,"Jacket",4,"Scooter",1,"Cup",2,FALSE,TRUE,FALSE,"left","right",FALSE,TRUE,"left","[""middle"",""right""]",3381.19999998808,0,13,FALSE,TRUE,100,3114.40000003576,0,0,0,0,48,FALSE,TRUE,FALSE,"left","right",6836.69999998808
"572bcdbb34b25a0010ddd977",2,"Shampoo",1,"Feet",1,"Sun",2,FALSE,TRUE,FALSE,"right","middle",FALSE,TRUE,"right","[""left"",""middle""]",2982.60000000149,0,30,TRUE,TRUE,100,1118,0,0,0,0,34,FALSE,TRUE,FALSE,"right","middle",5412.60000000149
"676443cee5ece5f979de2bd2",2,"Knee",3,"Princess",4,"Computer",1,FALSE,FALSE,TRUE,"right","middle",FALSE,TRUE,"left","[""middle"",""right""]",4240.89999997616,0,14,FALSE,FALSE,73,1627.60000002384,0,0,0,0,16,FALSE,TRUE,FALSE,"left","middle",6977.10000002384
"60cfcb4c402bc3a7ff5d8f3d",2,"Envelope",2,"Butter",3,"Brush",4,FALSE,FALSE,TRUE,"right","middle",FALSE,TRUE,"left","[""middle"",""right""]",4383.00000000003,0,20,FALSE,TRUE,79,1331.99999999994,0,0,1,0,38,FALSE,FALSE,TRUE,"right","middle",1630
"5da640b9640c5d00133f384b",2,"Teeth",5,"Soap",5,"Fork",1,FALSE,TRUE,FALSE,"left","middle",FALSE,TRUE,"left","[""middle"",""right""]",3363.29999995232,0,22,FALSE,TRUE,75,2262.80000001192,0,0,0,0,35,FALSE,TRUE,FALSE,"left","middle",5023.60000002384
"5d951ede9b6f880018f63b6e",2,"Radio",3,"Squirrel",5,"Dog",3,FALSE,FALSE,TRUE,"middle","left",FALSE,TRUE,"right","[""left"",""middle""]",3756,0,28,FALSE,FALSE,56,509,0,0,0,0,17,TRUE,FALSE,FALSE,"left","left",951
"66c20b634a3b292d25596fbc",2,"Hair",1,"Clown",5,"Computer",2,TRUE,FALSE,FALSE,"middle","middle",FALSE,TRUE,"right","[""left"",""middle""]",8026.29999995232,0,10,FALSE,TRUE,53,1633.60000014305,0,0,1,0,3,TRUE,FALSE,FALSE,"middle","middle",3018.29999995232
"5f035c7ce9d86254e87992e4",2,"Puzzles",4,"Computer",5,"Nest",4,TRUE,FALSE,FALSE,"right","right",FALSE,TRUE,"left","[""middle"",""right""]",1519.90000009537,0,21,TRUE,TRUE,100,1534.29999995232,0,0,1,0,31,TRUE,FALSE,FALSE,"right","right",1882.29999995232
"5c73d2817ed3a70001fc2929",2,"Chair",4,"Slide",3,"Sand",1,FALSE,FALSE,TRUE,"middle","right",FALSE,TRUE,"left","[""middle"",""right""]",1194.60000014305,0,14,FALSE,FALSE,4,793.099999904633,0,0,0,0,10,FALSE,TRUE,FALSE,"left","right",1672.79999995232
"6367a6adb376bcde64f98559",2,"Whistle",5,"Stamps",4,"Bow",4,FALSE,FALSE,TRUE,"right","left",FALSE,TRUE,"middle","[""left"",""right""]",3639.10000002384,0,13,FALSE,FALSE,24,3092,0,0,0,0,16,TRUE,FALSE,FALSE,"left","left",5764.70000004768
"67e069199f5b036960b0cc5f",2,"Fries",1,"Circle",5,"Bean",3,FALSE,TRUE,FALSE,"left","right",FALSE,TRUE,"left","[""middle"",""right""]",3423.69999999925,0,20,TRUE,FALSE,30,1315.69999999925,0,0,0,0,16,FALSE,FALSE,TRUE,"middle","right",7143.19999999925
"66661b1242b581f199e49f4c",2,"Knife",1,"Bell",4,"Pretzel",5,FALSE,FALSE,TRUE,"right","left",FALSE,TRUE,"middle","[""left"",""right""]",2559,0,30,TRUE,TRUE,60,1469.70000004768,0,0,0,0,25,FALSE,FALSE,TRUE,"right","left",9855.59999990463
"66676a7edec232f186836137",2,"Monkey",3,"House",2,"Stairs",1,TRUE,FALSE,FALSE,"left","left",FALSE,TRUE,"middle","[""left"",""right""]",2259.30000001192,0,28,FALSE,FALSE,40,1531.10000002384,0,0,0,0,43,FALSE,TRUE,FALSE,"middle","left",2941
"682ac1b6669fa157b2399b41",2,"Jacket",5,"Play dough",3,"Ostrich",2,FALSE,FALSE,TRUE,"left","middle",FALSE,TRUE,"right","[""left"",""middle""]",2535.60000014305,0,30,FALSE,TRUE,56,1857.09999990463,0,0,1,0,30,FALSE,FALSE,TRUE,"left","middle",2588.40000009537
"6658c4239af9537eefdfbcc9",2,"Puzzles",3,"Crayons",5,"Ankle",1,FALSE,FALSE,TRUE,"middle","right",FALSE,TRUE,"left","[""middle"",""right""]",2027.29999995232,0,18,FALSE,TRUE,69,961.399999976158,0,0,0,0,36,FALSE,FALSE,TRUE,"middle","right",1877.30000007153
"5a993b151eda410001365a23",2,"Rope",3,"Window",1,"Ant",2,FALSE,TRUE,FALSE,"right","left",FALSE,TRUE,"right","[""left"",""middle""]",3346.60000002384,0,13,FALSE,TRUE,50,1825.60000002384,0,0,0,0,33,FALSE,TRUE,FALSE,"right","left",29304.4000000358
"66a90c2263a2823be078178e",2,"Queen",2,"Octopus",4,"Pizza",1,FALSE,TRUE,FALSE,"left","right",FALSE,TRUE,"left","[""middle"",""right""]",2942,0,13,FALSE,FALSE,67,1408,0,0,0,0,20,TRUE,FALSE,FALSE,"right","right",2780
"665d3b8935ef56ce74c4761f",2,"Popsicle",5,"Barn",3,"Hamburger",2,TRUE,FALSE,FALSE,"left","left",FALSE,TRUE,"middle","[""left"",""right""]",4496.7999997139,0,16,FALSE,TRUE,60,2200.09999990463,0,0,0,0,18,TRUE,FALSE,FALSE,"left","left",2882.80000019073
"6792ae75a1d32bb9534a819f",3,"Leg",2,"Fries",3,"Curtain",1,FALSE,TRUE,FALSE,"right","middle",FALSE,TRUE,"right","[""left"",""middle""]",2606.79999999702,0,19,FALSE,FALSE,10,3587.79999999702,0,0,0,0,30,FALSE,FALSE,TRUE,"left","middle",15099.099999994
"5e3f04fdb721da159417a725",3,"Popcorn",3,"Pool",4,"Fork",4,FALSE,TRUE,FALSE,"left","right",FALSE,TRUE,"left","[""middle"",""right""]",5039,0,10,FALSE,TRUE,29,1889,0,0,0,0,18,FALSE,TRUE,FALSE,"left","right",5533.79999999702
"670e09973d94a59502e84783",3,"Newspaper",4,"Bacon",3,"Yo-yo",3,FALSE,FALSE,TRUE,"left","middle",FALSE,TRUE,"right","[""left"",""middle""]",1353.79999995232,0,20,FALSE,TRUE,100,1297.40000009537,0,0,0,0,39,FALSE,FALSE,TRUE,"left","middle",1201.19999980927
"66f5e385ef9ec0b27c796a5c",3,"Milk",5,"Bridge",2,"Paints",1,TRUE,FALSE,FALSE,"left","left",FALSE,TRUE,"right","[""left"",""middle""]",3193.60000002384,0,23,FALSE,TRUE,73,1710.39999997616,0,0,0,0,20,TRUE,FALSE,FALSE,"left","left",2059.69999992847
"664f74aec5c6e6331cd6e860",3,"Suitcase",5,"Hat",5,"Battery",5,FALSE,TRUE,FALSE,"right","left",FALSE,TRUE,"right","[""left"",""middle""]",20292.7999999523,0,20,FALSE,TRUE,50,7483.79999995232,0,0,0,0,35,FALSE,TRUE,FALSE,"right","left",8627.79999995232
"5c28b31a0091e40001ca5030",3,"Bacon",4,"Pudding",4,"Moon",3,TRUE,FALSE,FALSE,"left","left",FALSE,TRUE,"right","[""left"",""middle""]",7141,0,33,FALSE,TRUE,62,2500,0,0,0,0,39,TRUE,FALSE,FALSE,"left","left",3529
"676580fa5bded2910a43ed67",3,"Yogurt",5,"Stool",2,"Napkin",5,FALSE,FALSE,TRUE,"middle","right",FALSE,TRUE,"left","[""middle"",""right""]",1994,0,22,FALSE,FALSE,35,714,0,0,0,0,29,FALSE,TRUE,FALSE,"left","right",2295
"60e0dc6be0772b7dfdad9b2c",3,"Chair",4,"Pretzel",1,"Net",3,FALSE,TRUE,FALSE,"middle","right",FALSE,TRUE,"middle","[""left"",""right""]",2323.09999990463,0,16,FALSE,FALSE,39,1272,0,0,0,0,35,TRUE,FALSE,FALSE,"right","right",9726.89999997616
"63f77a5dde1ea03305e119e0",3,"Butter",1,"Microphone",5,"Helicopter",4,FALSE,TRUE,FALSE,"right","left",FALSE,TRUE,"right","[""left"",""middle""]",2188.3,0,28,TRUE,FALSE,72,1065.79999999999,0,0,0,0,41,TRUE,FALSE,FALSE,"left","left",1624.10000000003
"5cafc17ace1fa80017a20d6b",3,"Airplane",2,"Bean",5,"Movie",2,FALSE,TRUE,FALSE,"middle","left",FALSE,TRUE,"middle","[""left"",""right""]",3528.10000000894,0,28,TRUE,FALSE,68,1316,0,0,0,0,32,TRUE,FALSE,FALSE,"left","left",1923.09999999404
"66854f18db63152992b1a81e",3,"Ice Cream",1,"Earring",4,"Leaf",5,FALSE,TRUE,FALSE,"right","left",FALSE,TRUE,"right","[""left"",""middle""]",1817.80000000075,0,7,FALSE,TRUE,63,1248.19999999925,0,0,0,0,4,FALSE,TRUE,FALSE,"right","left",2349.09999999776
"66537b0010ca11939058e52b",3,"Pancakes",5,"Bridge",5,"Broom",1,FALSE,TRUE,FALSE,"middle","left",FALSE,TRUE,"middle","[""left"",""right""]",2622.09999990463,0,21,FALSE,FALSE,75,1199.39999997616,0,0,0,0,19,TRUE,FALSE,FALSE,"left","left",3492.39999997616
"669eb709554e753adddffe01",3,"Pan",5,"Glove",5,"Blanket",5,FALSE,TRUE,FALSE,"left","right",FALSE,TRUE,"left","[""middle"",""right""]",2850.90000009537,0,20,TRUE,TRUE,80,1986.29999995232,0,0,0,0,30,FALSE,TRUE,FALSE,"left","right",6153.29999995232
"59dd90f6e75b450001a68dac",3,"Lion",5,"Spoon",1,"Puppets",2,FALSE,TRUE,FALSE,"left","right",FALSE,TRUE,"left","[""middle"",""right""]",2135,0,32,TRUE,TRUE,100,1013.30000001192,0,0,0,0,40,FALSE,TRUE,FALSE,"left","right",2481.79999995232
"5e121701dc79bd8a1a22ca99",3,"Brush",1,"Head",3,"Ring",3,FALSE,FALSE,TRUE,"middle","right",FALSE,TRUE,"left","[""middle"",""right""]",2455.70000004768,0,18,FALSE,FALSE,79,1698.60000014305,0,1,1,0,25,TRUE,FALSE,FALSE,"right","right",2324.60000014305
"5fd393664d8c020163cb3ef2",3,"Bone",4,"Tractor",3,"Nest",5,FALSE,TRUE,FALSE,"right","middle",FALSE,TRUE,"right","[""left"",""middle""]",1883.29999999702,0,15,FALSE,TRUE,0,3439.89999999851,0,0,0,0,35,FALSE,TRUE,FALSE,"right","middle",4589.60000000149
"5c4d8d706b23ab0001a34af2",3,"Bubbles",1,"Fork",4,"Frog",5,TRUE,FALSE,FALSE,"middle","middle",FALSE,TRUE,"left","[""middle"",""right""]",4082.89999999851,0,20,FALSE,FALSE,35,794.400000002235,0,0,0,0,15,FALSE,FALSE,TRUE,"right","middle",3020.30000000075
"6142013d4dd8ae5ca2b4329b",3,"Grass",3,"Knife",1,"Dinosaur",2,TRUE,FALSE,FALSE,"left","left",FALSE,TRUE,"middle","[""left"",""right""]",2604.59999990463,0,20,FALSE,TRUE,76,1077,0,0,0,0,15,TRUE,FALSE,FALSE,"left","left",2505.10000014305
"67c5d7d4bfda0ffd6d9a5ef8",3,"Dress",4,"Frog",4,"Chair",4,FALSE,FALSE,TRUE,"middle","left",FALSE,TRUE,"right","[""left"",""middle""]",2941,0,18,FALSE,TRUE,56,998.999999999942,0,0,0,0,13,FALSE,FALSE,TRUE,"middle","left",2797
"64a9858be9b52e570ffb3c1e",3,"Butter",3,"Plate",3,"Rabbit",3,FALSE,TRUE,FALSE,"left","right",FALSE,TRUE,"left","[""middle"",""right""]",2423,0,35,TRUE,TRUE,88,927,0,0,0,0,30,FALSE,TRUE,FALSE,"left","right",2615
"5c0873675b32d500012e3f2c",3,"Suitcase",4,"Carrots",2,"Pirate",3,FALSE,FALSE,TRUE,"left","right",FALSE,TRUE,"middle","[""left"",""right""]",5430,0,18,FALSE,FALSE,26,3577,0,0,0,0,38,FALSE,TRUE,FALSE,"middle","right",14951
"5ecf5a78ba30501d2ca5e34b",3,"Stairs",2,"Bike",4,"Pear",4,TRUE,FALSE,FALSE,"right","right",TRUE,TRUE,"left","[""middle"",""right""]",1250.89999999106,0,20,TRUE,TRUE,100,1517.29999999702,0,0,0,0,15,TRUE,FALSE,FALSE,"right","right",1471.70000000298
"60461bfeeac81b04cf62f7a6",3,"Straw",1,"Pen",4,"Rabbit",2,TRUE,FALSE,FALSE,"middle","middle",FALSE,TRUE,"right","[""left"",""middle""]",4129,0,10,FALSE,TRUE,99,1379,0,0,1,0,10,TRUE,FALSE,FALSE,"middle","middle",5820
"67803b5508f3d995ef13696b",3,"Rock",5,"Notebook",4,"Popsicle",1,FALSE,FALSE,TRUE,"left","middle",FALSE,TRUE,"right","[""left"",""middle""]",1437.39999999851,0,15,TRUE,FALSE,68,1982.80000000447,0,0,0,0,20,TRUE,FALSE,FALSE,"middle","middle",3494.39999999851
"6053e01a6a8e8516ba7d47a7",3,"Bracelet",2,"Cupcake",5,"Bat",3,TRUE,FALSE,FALSE,"left","left",FALSE,TRUE,"right","[""left"",""middle""]",5020.39999999851,0,17,FALSE,FALSE,33,2489.10000000149,0,0,0,0,22,FALSE,FALSE,TRUE,"middle","left",6600.60000000149
"5f1088e27a43fe0c64ca5814",3,"Grapes",5,"Stool",5,"Refrigerator",4,TRUE,FALSE,FALSE,"left","left",TRUE,TRUE,"middle","[""left"",""right""]",2117.29999995232,0,10,FALSE,TRUE,98,2202,0,0,0,0,8,TRUE,FALSE,FALSE,"left","left",3906.5
"5e787106a9d3b53ee4281eb1",3,"Notebook",1,"Ant",4,"Flashlight",4,FALSE,FALSE,TRUE,"right","middle",FALSE,TRUE,"left","[""middle"",""right""]",2743,0,21,FALSE,TRUE,26,1285,0,0,0,0,37,FALSE,FALSE,TRUE,"right","middle",3137
"5de3c83c2033793be6591e53",3,"Lion",3,"Goal",1,"Computer",3,TRUE,FALSE,FALSE,"middle","middle",FALSE,TRUE,"left","[""middle"",""right""]",4166.40000000596,0,15,FALSE,TRUE,74,814.90000000596,0,0,0,0,15,TRUE,FALSE,FALSE,"middle","middle",1680.90000000596
"5b681788ca518a0001c7a755",3,"Bucket",2,"Toy",1,"Keys",2,FALSE,FALSE,TRUE,"left","middle",FALSE,TRUE,"right","[""left"",""middle""]",1610,0,15,FALSE,TRUE,46,836.400000095367,0,0,0,0,35,FALSE,FALSE,TRUE,"left","middle",3303.29999995232
"5c4f5967aac8be0001716a65",3,"Tractor",1,"Lamp",5,"Belt",4,TRUE,FALSE,FALSE,"right","right",FALSE,TRUE,"middle","[""left"",""right""]",2659.80000000447,0,17,FALSE,TRUE,73,588.89999999851,0,0,1,0,40,TRUE,FALSE,FALSE,"right","right",1852.29999999702
"664c9ccdfb4921f641e9ff91",3,"Tape",3,"Baby",4,"Mirror",4,FALSE,FALSE,TRUE,"left","middle",FALSE,TRUE,"right","[""left"",""middle""]",2962.80000000075,0,20,FALSE,TRUE,40,1890.40000000037,0,0,0,0,40,FALSE,FALSE,TRUE,"left","middle",3337.89999999851
"6151556ef73ba765c7ff55f6",3,"Rice",3,"Bandaid",3,"Snake",3,FALSE,FALSE,TRUE,"middle","right",FALSE,TRUE,"left","[""middle"",""right""]",2046.79999999702,0,22,TRUE,FALSE,66,1763,0,0,1,0,14,TRUE,FALSE,FALSE,"right","right",2858.5
"681b781064a5701a5ceee3bc",3,"Pie",4,"Wheel",4,"Lamp",5,TRUE,FALSE,FALSE,"right","right",FALSE,TRUE,"left","[""middle"",""right""]",3458.7000002861,0,18,TRUE,TRUE,100,1777.09999990463,0,0,0,0,33,TRUE,FALSE,FALSE,"right","right",3738.7999997139
"6693a6ffc58de3bb9c5341de",3,"Hips",2,"Chicken",1,"Blocks",4,FALSE,TRUE,FALSE,"right","left",FALSE,TRUE,"right","[""left"",""middle""]",2112.10000002384,0,23,TRUE,FALSE,17,2024.60000002384,0,0,0,0,36,TRUE,FALSE,FALSE,"left","left",1880.70000004768
"5ca6717bb54fe60001e22441",3,"Stool",4,"Grapes",3,"Microphone",3,TRUE,FALSE,FALSE,"middle","middle",TRUE,TRUE,"right","[""left"",""middle""]",1738,0,14,TRUE,TRUE,100,1103.60000000149,0,0,0,0,25,TRUE,FALSE,FALSE,"middle","middle",2285.19999999553
"673e2923ed2dd1f79b63d19d",3,"Helicopter",5,"Pretzel",2,"Bike",3,FALSE,FALSE,TRUE,"middle","left",FALSE,TRUE,"right","[""left"",""middle""]",2501.90000009537,0,25,TRUE,FALSE,100,1935.69999992847,0,0,0,0,35,TRUE,FALSE,FALSE,"left","left",2618.29999995232
"669677d986a5a20026bbf20e",3,"Video Tape",2,"Envelope",3,"Stove",1,FALSE,FALSE,TRUE,"middle","right",FALSE,TRUE,"left","[""middle"",""right""]",1850.60000000149,0,18,FALSE,TRUE,27,1633.10000000149,0,0,0,0,15,FALSE,FALSE,TRUE,"middle","right",3137.70000000298
"62fccb9647eb07d62e9b6baa",3,"Hands",1,"Ostrich",5,"Feather",2,TRUE,FALSE,FALSE,"middle","middle",FALSE,TRUE,"left","[""middle"",""right""]",2535.30000001192,0,37,TRUE,FALSE,67,1751,0,0,0,0,30,FALSE,FALSE,TRUE,"right","middle",3913
"56d56e550b5634000bdc5703",3,"Keys",1,"Diaper",5,"Bear",4,FALSE,FALSE,TRUE,"right","middle",FALSE,TRUE,"left","[""middle"",""right""]",5905.90000000002,0,22,TRUE,FALSE,48,2423.5,0,0,0,0,27,TRUE,FALSE,FALSE,"middle","middle",4192.39999999991
"631610af8e747093cd90e00d",3,"Mouth",5,"Puppets",1,"Fire",3,FALSE,TRUE,FALSE,"right","left",FALSE,TRUE,"right","[""left"",""middle""]",2311.90000003576,0,17,FALSE,FALSE,6,794,0,0,0,0,30,TRUE,FALSE,FALSE,"left","left",3635.39999997616
"667be3b3495a08369501bcbb",3,"Coloring Book",5,"TV",5,"Fingers",2,FALSE,TRUE,FALSE,"middle","right",FALSE,TRUE,"middle","[""left"",""right""]",3299.70000000019,0,20,FALSE,TRUE,78,930.5,0,0,0,0,19,FALSE,TRUE,FALSE,"middle","right",4419.89999999944
"6730f2e20f5915ff4ad2c07d",3,"Iron",3,"Teeth",3,"Hanger",1,FALSE,TRUE,FALSE,"left","middle",FALSE,TRUE,"left","[""middle"",""right""]",2835.80000019073,0,17,TRUE,FALSE,2,1264.69999980927,0,0,0,1,16,TRUE,FALSE,FALSE,"middle","middle",2889.59999990463
"5d8cef3c28e183001a335ab0",3,"Shoulders",3,"Milk",5,"Bear",5,FALSE,FALSE,TRUE,"middle","left",FALSE,TRUE,"right","[""left"",""middle""]",1386,0,12,FALSE,FALSE,97,859.799999713898,0,0,0,0,22,FALSE,TRUE,FALSE,"right","left",1873.90000009537
"664ccdd7d581711cd0c36f2b",3,"Pear",3,"Duck",2,"House",1,TRUE,FALSE,FALSE,"left","left",TRUE,TRUE,"middle","[""left"",""right""]",2247.5,0,20,FALSE,TRUE,100,1112.20000000019,0,0,0,0,6,TRUE,FALSE,FALSE,"left","left",1858.39999999991
"68a5eefd236f1c08d08ffce6",3,"Sun",4,"Knee",2,"Fence",5,TRUE,FALSE,FALSE,"right","right",FALSE,TRUE,"middle","[""left"",""right""]",3011.70000001788,0,20,FALSE,TRUE,77,1060.79999998212,0,0,0,0,25,TRUE,FALSE,FALSE,"right","right",2843.29999998212
"5aafd9eff69e940001d88bf4",3,"Hanger",2,"Puppets",2,"Hammer",5,TRUE,FALSE,FALSE,"right","right",FALSE,TRUE,"middle","[""left"",""right""]",2867,0,21,FALSE,TRUE,0,1158,0,0,0,0,12,TRUE,FALSE,FALSE,"right","right",4943
"5a0c4184fe645f0001e9f5dd",3,"Purse",4,"Fence",5,"TV",2,FALSE,FALSE,TRUE,"right","left",FALSE,TRUE,"middle","[""left"",""right""]",1962.69999999995,0,15,FALSE,TRUE,1,824.599999999627,0,0,0,0,10,FALSE,FALSE,TRUE,"right","left",4523.10000000009
"5f08e3eda7b89d16266b0cdf",3,"Shovel",1,"Sweater",1,"Chips",3,FALSE,FALSE,TRUE,"right","middle",FALSE,TRUE,"left","[""middle"",""right""]",1597,0,8,TRUE,TRUE,76,936,0,0,0,0,30,FALSE,FALSE,TRUE,"right","middle",4327
"66b507cc1a7e164991afbe17",3,"Brush",3,"Spoon",5,"Chicken",2,FALSE,TRUE,FALSE,"left","right",FALSE,TRUE,"left","[""middle"",""right""]",4393.09999999404,1,33,FALSE,FALSE,53,1549,0,0,0,0,25,FALSE,FALSE,TRUE,"middle","right",2824.80000001192
"5e459f61418f610891628564",3,"Diaper",1,"Notebook",1,"Slide",5,FALSE,TRUE,FALSE,"right","left",FALSE,TRUE,"right","[""left"",""middle""]",1599.60000038147,0,16,FALSE,TRUE,67,1180.19999980927,0,0,0,0,40,FALSE,TRUE,FALSE,"right","left",1965.39999961853
"58c4ff360f0c150001ed45a4",3,"Sunglasses",1,"Umbrella",4,"Doughnut",4,TRUE,FALSE,FALSE,"right","right",FALSE,TRUE,"left","[""middle"",""right""]",1947.20000000298,1,30,FALSE,FALSE,0,1133.79999999702,0,0,0,0,20,FALSE,FALSE,TRUE,"middle","right",2362
"6658e2cb395c02efada6a7a1",3,"Bead",1,"Marker",2,"Lamp",3,TRUE,FALSE,FALSE,"middle","middle",FALSE,TRUE,"left","[""middle"",""right""]",4429.5,0,12,TRUE,FALSE,25,1626.5,0,0,0,0,13,FALSE,TRUE,FALSE,"left","middle",3005.19999998808
"6614fb6af3c5aa23b962ea2d",3,"Airplane",3,"Paints",1,"Sun",1,FALSE,TRUE,FALSE,"right","middle",FALSE,TRUE,"right","[""left"",""middle""]",3170,0,10,FALSE,FALSE,30,1078.29999999888,0,0,0,0,5,FALSE,FALSE,TRUE,"left","middle",1772
"6329c13285c93cafdf51ed77",3,"Elephant",2,"Bird",3,"Pool",2,FALSE,FALSE,TRUE,"left","middle",FALSE,TRUE,"right","[""left"",""middle""]",3891.69999999925,0,21,FALSE,FALSE,63,2064.90000000037,0,0,0,0,17,TRUE,FALSE,FALSE,"middle","middle",4324.5
"6697cf02d714e7ee3fdedcec",3,"Box",4,"Paper",3,"Fire truck",5,FALSE,FALSE,TRUE,"right","middle",FALSE,TRUE,"left","[""middle"",""right""]",2295,0,20,FALSE,TRUE,79,1228.80000007153,0,0,0,0,15,FALSE,FALSE,TRUE,"right","middle",2548.10000002384
"678f6e1f6a3d68ee8c1533f5",3,"Wing",3,"Pot",5,"Bread",1,FALSE,FALSE,TRUE,"right","middle",FALSE,TRUE,"left","[""middle"",""right""]",3293.19999998808,0,10,FALSE,TRUE,17,884.29999999702,0,0,0,0,15,FALSE,FALSE,TRUE,"right","middle",4541.30000001192
"63f7ac13d942e94c18c92d4b",3,"Jacket",1,"Sandwich",4,"Bandaid",2,TRUE,FALSE,FALSE,"middle","middle",FALSE,TRUE,"left","[""middle"",""right""]",1936,0,16,TRUE,TRUE,39,1295.30000019073,0,0,0,0,20,TRUE,FALSE,FALSE,"middle","middle",3472.60000014305
"60eda0b5e8f579f6a73d0f6b",3,"Keys",3,"String",3,"Feather",5,TRUE,FALSE,FALSE,"right","right",FALSE,TRUE,"left","[""middle"",""right""]",2853.10000002384,0,15,FALSE,FALSE,32,2775.20000004768,0,0,0,0,8,FALSE,TRUE,FALSE,"left","right",6476.20000004768
"5b52f4933234ab00014ca442",3,"Oranges",5,"Play dough",3,"Plate",1,TRUE,FALSE,FALSE,"left","left",TRUE,TRUE,"middle","[""left"",""right""]",1246.30000019073,0,18,FALSE,TRUE,100,1084.5,0,0,0,0,42,TRUE,FALSE,FALSE,"left","left",1487.29999995232
"639844d5b2757a6f6377a69b",3,"Shoes",5,"Bacon",4,"Chopsticks",4,TRUE,FALSE,FALSE,"middle","middle",FALSE,TRUE,"right","[""left"",""middle""]",3950.29999995232,0,28,FALSE,TRUE,87,1512.39999997616,0,0,0,0,26,TRUE,FALSE,FALSE,"middle","middle",1337.20000004768
"629f6b8c65fcae219e245284",3,"Hanger",1,"Swing",5,"Octopus",2,FALSE,FALSE,TRUE,"right","left",FALSE,TRUE,"middle","[""left"",""right""]",1989.09999999776,0,31,TRUE,FALSE,53,660.5,0,0,0,0,35,TRUE,FALSE,FALSE,"left","left",1969.5
"5fda057989ec4c35a700f69f",3,"Flashlight",2,"Fish",2,"Fly",1,TRUE,FALSE,FALSE,"left","left",FALSE,TRUE,"middle","[""left"",""right""]",3375.5,0,23,FALSE,TRUE,20,1623.70000004768,0,0,0,0,15,TRUE,FALSE,FALSE,"left","left",3803.89999997616
"63d4315d46c8643186d488f7",3,"Tape",2,"Necklace",2,"Snow",2,FALSE,FALSE,TRUE,"middle","right",FALSE,TRUE,"left","[""middle"",""right""]",3227.90000000037,0,18,FALSE,FALSE,35,1963.5,0,0,0,0,21,TRUE,FALSE,FALSE,"right","right",6040.59999999776
"558fd02cfdf99b39cb035e5d",3,"Fly",3,"Butter",2,"Bug",4,FALSE,TRUE,FALSE,"middle","left",FALSE,TRUE,"middle","[""left"",""right""]",2347,0,16,FALSE,FALSE,57,1331,0,0,0,0,11,FALSE,FALSE,TRUE,"right","left",2465
"66cbc2627559d53c0e3e4ac4",3,"Water",4,"Toes",3,"Shoes",4,TRUE,FALSE,FALSE,"left","left",FALSE,TRUE,"middle","[""left"",""right""]",2313.5,0,22,TRUE,FALSE,26,1121.60000000894,0,0,0,0,40,FALSE,FALSE,TRUE,"right","left",6712.5
"6762d29bf8f9712a46c73b62",3,"House",2,"Corn",1,"Candle",4,FALSE,TRUE,FALSE,"middle","right",FALSE,TRUE,"middle","[""left"",""right""]",3201.89999999851,0,32,TRUE,FALSE,98,2440.5,0,0,0,0,27,FALSE,FALSE,TRUE,"left","right",5731.40000000224
"627a76b96bea55210aecbba9",3,"Pajamas",2,"Swimsuit",3,"Candle",5,FALSE,FALSE,TRUE,"left","middle",FALSE,TRUE,"right","[""left"",""middle""]",2059.30000001192,0,10,FALSE,FALSE,87,1122.29999998212,0,0,0,0,40,FALSE,TRUE,FALSE,"right","middle",3158.80000001192
"5cc53cf3291607001757c712",3,"Lizard",5,"Leg",4,"Comb",5,TRUE,FALSE,FALSE,"middle","middle",FALSE,TRUE,"left","[""middle"",""right""]",2423.09999996424,0,25,FALSE,FALSE,44,1357.69999998808,0,0,0,0,18,FALSE,FALSE,TRUE,"right","middle",8125.59999996424
"608ab6edcbea5439dc2f537e",3,"Pie",4,"Fish",1,"Hose",3,FALSE,FALSE,TRUE,"left","right",FALSE,TRUE,"middle","[""left"",""right""]",1954.5,0,31,FALSE,FALSE,65,582.10000000149,0,0,0,0,23,TRUE,FALSE,FALSE,"right","right",4018.59999999776
"5ee0edcb962eba464f486b40",3,"Boat",2,"Sunglasses",2,"Door",2,FALSE,FALSE,TRUE,"right","left",FALSE,TRUE,"middle","[""left"",""right""]",2711.29999999702,0,19,TRUE,FALSE,63,980.600000008941,0,0,1,0,27,FALSE,TRUE,FALSE,"middle","left",2889.79999999702
"55848744fdf99b574f55ada0",3,"Hammer",5,"Swing",3,"Juice",3,FALSE,FALSE,TRUE,"left","middle",FALSE,TRUE,"right","[""left"",""middle""]",6672.60000014305,0,19,FALSE,FALSE,13,1254.90000009537,0,0,0,0,10,FALSE,TRUE,FALSE,"right","middle",1926.40000009537
"59fabb7e38ed430001be6965",3,"Bee",5,"Clown",2,"Bananas",1,TRUE,FALSE,FALSE,"right","right",TRUE,TRUE,"middle","[""left"",""right""]",1922.19999999972,0,15,FALSE,TRUE,75,2295.09999999963,0,0,0,0,8,TRUE,FALSE,FALSE,"right","right",2170.40000000037
"65c347be7d456f4e0902823d",3,"Tie",5,"Ostrich",1,"Potatoes",4,FALSE,TRUE,FALSE,"right","middle",FALSE,TRUE,"right","[""left"",""middle""]",39516.700000003,0,22,FALSE,TRUE,62,1185,0,0,0,0,26,FALSE,TRUE,FALSE,"right","middle",9359.59999999404
"66635ce30892c73e41fee639",3,"Dolls",5,"Bat",1,"Meat",2,TRUE,FALSE,FALSE,"middle","middle",FALSE,TRUE,"right","[""left"",""middle""]",2644.5,0,22,FALSE,FALSE,43,1991.79999995232,0,0,0,0,36,FALSE,FALSE,TRUE,"left","middle",2407.5
"58a43e029a17120001d910d5",3,"Paper",1,"Cable",2,"Toes",4,FALSE,TRUE,FALSE,"right","middle",FALSE,TRUE,"right","[""left"",""middle""]",3575.70000076294,0,11,FALSE,FALSE,0,1289,0,0,0,0,12,FALSE,FALSE,TRUE,"left","middle",2619.10000038147
"63af557b3d4f219c3226b7d6",3,"Nest",5,"Yogurt",4,"Yo-yo",4,FALSE,FALSE,TRUE,"middle","right",FALSE,TRUE,"left","[""middle"",""right""]",3010.80000001192,0,18,TRUE,TRUE,10,1591.09999999404,0,0,0,0,9,FALSE,FALSE,TRUE,"middle","right",3475.40000000596
"5b5ecd4b7757ed000198d434",3,"Popcorn",4,"Candle",2,"Comb",3,FALSE,TRUE,FALSE,"left","right",FALSE,TRUE,"left","[""middle"",""right""]",1829.79999999702,0,20,FALSE,TRUE,87,1341.20000000298,0,0,0,0,10,FALSE,TRUE,FALSE,"left","right",2194.70000000298
"62b1a5075f423b00f1d16e07",3,"Pizza",4,"CD",3,"Slinky",1,TRUE,FALSE,FALSE,"right","right",FALSE,TRUE,"left","[""middle"",""right""]",486,0,20,FALSE,TRUE,82,1822.60000000149,0,0,0,1,15,TRUE,FALSE,FALSE,"right","right",1083.39999999851
"676572d1818b3b26ca9f6ce2",3,"Queen",4,"Teeth",5,"Pie",5,FALSE,FALSE,TRUE,"right","middle",FALSE,TRUE,"left","[""middle"",""right""]",4508.40000000596,0,15,FALSE,TRUE,72,1039.69999998808,0,0,0,0,30,FALSE,FALSE,TRUE,"right","middle",5518
"652359572fd30ff57dfea7fb",3,"Feather",4,"Crown",5,"Pig",2,FALSE,TRUE,FALSE,"right","middle",FALSE,TRUE,"right","[""left"",""middle""]",4117.70000001788,0,20,FALSE,FALSE,93,1194.90000000596,0,0,0,0,40,TRUE,FALSE,FALSE,"middle","middle",2840.80000001192
"5e0fdde8b638537085d51b6c",3,"Lion",5,"Teddy Bear",1,"Leg",4,FALSE,TRUE,FALSE,"right","middle",FALSE,TRUE,"right","[""left"",""middle""]",1732.79999995232,0,6,FALSE,FALSE,16,807.300000071526,0,0,0,0,6,FALSE,FALSE,TRUE,"left","middle",4844.89999997616
"5b3e2334cdb4ce0001d93c51",3,"Hat",3,"Princess",4,"Bubbles",4,FALSE,FALSE,TRUE,"right","middle",FALSE,TRUE,"left","[""middle"",""right""]",2247.39999999851,0,9,FALSE,FALSE,23,1157.5,0,0,0,0,17,FALSE,TRUE,FALSE,"left","middle",6937
"5d76ac914c93440001c03fd7",3,"Magazine",1,"Cupcake",1,"Duck",4,FALSE,FALSE,TRUE,"right","middle",FALSE,TRUE,"left","[""middle"",""right""]",2540.5,0,13,FALSE,TRUE,100,963.699999988079,0,0,0,0,48,FALSE,FALSE,TRUE,"right","middle",2874.10000002384
"572bcdbb34b25a0010ddd977",3,"Leaf",1,"Hot Dog",3,"Toes",2,TRUE,FALSE,FALSE,"middle","middle",FALSE,TRUE,"right","[""left"",""middle""]",2846.09999999776,0,30,TRUE,TRUE,48,1288,0,0,0,0,34,TRUE,FALSE,FALSE,"middle","middle",5103.80000000075
"676443cee5ece5f979de2bd2",3,"Kangaroo",1,"Tie",2,"Bean",1,TRUE,FALSE,FALSE,"middle","middle",FALSE,TRUE,"left","[""middle"",""right""]",2576.89999997616,0,14,FALSE,FALSE,55,4737.89999997616,0,0,0,0,16,FALSE,FALSE,TRUE,"right","middle",3913.70000004768
"60cfcb4c402bc3a7ff5d8f3d",3,"Ghost",4,"Strawberries",5,"Puppets",3,TRUE,FALSE,FALSE,"middle","middle",TRUE,TRUE,"left","[""middle"",""right""]",1528,0,20,FALSE,TRUE,100,617.999999999942,0,0,1,0,38,TRUE,FALSE,FALSE,"middle","middle",1119
"5da640b9640c5d00133f384b",3,"Bird",3,"Rabbit",5,"Shorts",1,TRUE,FALSE,FALSE,"middle","middle",FALSE,TRUE,"left","[""middle"",""right""]",2092,0,22,FALSE,TRUE,99,1372.5,0,0,0,0,35,TRUE,FALSE,FALSE,"middle","middle",1922.10000002384
"5d951ede9b6f880018f63b6e",3,"Whistle",4,"Elbow",3,"Fish",1,FALSE,FALSE,TRUE,"left","middle",FALSE,TRUE,"right","[""left"",""middle""]",2260,0,28,FALSE,FALSE,20,374,0,0,0,0,17,TRUE,FALSE,FALSE,"middle","middle",2141
"66c20b634a3b292d25596fbc",3,"Rope",5,"Ankle",3,"Pajamas",2,FALSE,FALSE,TRUE,"middle","left",FALSE,TRUE,"right","[""left"",""middle""]",2719.29999995232,0,10,FALSE,TRUE,47,1301.5,0,0,1,0,3,FALSE,FALSE,TRUE,"middle","left",2597.70000004768
"5f035c7ce9d86254e87992e4",3,"Balloons",5,"Crackers",5,"Bike",4,FALSE,TRUE,FALSE,"left","right",FALSE,TRUE,"left","[""middle"",""right""]",2669.20000004768,0,21,TRUE,FALSE,77,1760.20000004768,0,0,1,0,31,FALSE,FALSE,TRUE,"middle","right",1755.79999995232
"5c73d2817ed3a70001fc2929",3,"Pancakes",5,"Monkey",3,"Bow",1,TRUE,FALSE,FALSE,"right","right",FALSE,TRUE,"left","[""middle"",""right""]",1132.79999995232,0,14,FALSE,FALSE,2,651.400000095367,0,0,0,0,10,FALSE,FALSE,TRUE,"middle","right",755.700000047684
"6367a6adb376bcde64f98559",3,"Bell",4,"Books",5,"Carrots",2,TRUE,FALSE,FALSE,"right","right",FALSE,TRUE,"middle","[""left"",""right""]",4112.09999996424,0,13,FALSE,TRUE,48,1427.09999996424,0,0,0,0,16,TRUE,FALSE,FALSE,"right","right",2703
"67e069199f5b036960b0cc5f",3,"Water",5,"Soup",1,"Glue",5,FALSE,FALSE,TRUE,"middle","right",FALSE,TRUE,"left","[""middle"",""right""]",7851.60000000149,0,20,TRUE,FALSE,76,1482.79999999702,0,0,0,0,16,FALSE,TRUE,FALSE,"left","right",2168.80000000075
"66661b1242b581f199e49f4c",3,"Lunch",4,"Pudding",2,"Apples",5,FALSE,TRUE,FALSE,"middle","right",TRUE,TRUE,"middle","[""left"",""right""]",5598.29999995232,0,30,TRUE,FALSE,56,3062.89999985695,0,0,0,0,25,FALSE,FALSE,TRUE,"left","right",4928.79999995232
"66676a7edec232f186836137",3,"Pretzel",1,"Sand",1,"Feet",5,FALSE,FALSE,TRUE,"right","left",FALSE,TRUE,"middle","[""left"",""right""]",2729.69999998808,0,28,FALSE,FALSE,77,1339.80000001192,0,0,0,0,43,TRUE,FALSE,FALSE,"left","left",3023.40000003576
"682ac1b6669fa157b2399b41",3,"Puzzles",4,"Sofa",2,"Lunch",1,TRUE,FALSE,FALSE,"middle","middle",FALSE,TRUE,"right","[""left"",""middle""]",3298.69999980927,0,30,FALSE,FALSE,5,2260.70000004768,0,0,1,0,30,FALSE,TRUE,FALSE,"right","middle",4113.90000009537
"6658c4239af9537eefdfbcc9",3,"Meat",3,"Sticker",3,"Books",3,FALSE,TRUE,FALSE,"left","right",FALSE,TRUE,"left","[""middle"",""right""]",2252.60000002384,0,18,FALSE,TRUE,68,796,0,0,0,0,36,FALSE,TRUE,FALSE,"left","right",2525.40000009537
"5a993b151eda410001365a23",3,"Owl",5,"Magazine",3,"Sticker",1,FALSE,FALSE,TRUE,"left","middle",FALSE,TRUE,"right","[""left"",""middle""]",6613.10000002384,0,13,FALSE,TRUE,30,1994.30000001192,0,0,0,0,33,FALSE,FALSE,TRUE,"left","middle",7030.40000003576
"66a90c2263a2823be078178e",3,"Skateboard",3,"Sunglasses",4,"Stars",1,FALSE,FALSE,TRUE,"middle","right",FALSE,TRUE,"left","[""middle"",""right""]",2522,0,13,FALSE,TRUE,65,1718,0,0,0,0,20,FALSE,FALSE,TRUE,"middle","right",3731
"665d3b8935ef56ce74c4761f",3,"Brush",1,"Bagel",4,"Stairs",4,FALSE,TRUE,FALSE,"middle","left",FALSE,TRUE,"middle","[""left"",""right""]",2633.40000009537,0,16,FALSE,TRUE,59,1810,0,0,0,0,18,FALSE,TRUE,FALSE,"middle","left",2000.59999990463
"6792ae75a1d32bb9534a819f",4,"Cable",5,"Kangaroo",2,"Toy",5,TRUE,FALSE,FALSE,"middle","middle",FALSE,TRUE,"right","[""left"",""middle""]",4681.20000000298,0,19,FALSE,TRUE,81,2159.90000000596,0,0,0,0,30,TRUE,FALSE,FALSE,"middle","middle",3829.5
"5e3f04fdb721da159417a725",4,"Baby",4,"Popsicle",1,"Bead",1,FALSE,TRUE,FALSE,"left","middle",FALSE,TRUE,"left","[""middle"",""right""]",4859.39999999851,0,10,FALSE,TRUE,82,1504,0,0,0,0,18,FALSE,TRUE,FALSE,"left","middle",2944.10000000149
"670e09973d94a59502e84783",4,"Coloring Book",2,"Cherry",4,"Dolls",5,TRUE,FALSE,FALSE,"middle","middle",TRUE,TRUE,"right","[""left"",""middle""]",848.899999856949,0,20,FALSE,TRUE,100,723.299999952316,0,0,0,0,39,TRUE,FALSE,FALSE,"middle","middle",1229.59999990463
"66f5e385ef9ec0b27c796a5c",4,"Doughnut",1,"Drum",5,"Ostrich",4,FALSE,TRUE,FALSE,"right","left",FALSE,TRUE,"right","[""left"",""middle""]",2271.70000004768,0,23,FALSE,FALSE,17,1103.60000002384,0,0,0,0,20,FALSE,FALSE,TRUE,"middle","left",6765.39999997616
"664f74aec5c6e6331cd6e860",4,"Dress",5,"Flashlight",1,"Hair",4,TRUE,FALSE,FALSE,"middle","middle",FALSE,TRUE,"right","[""left"",""middle""]",5941.40000009537,0,20,FALSE,TRUE,29,2511.89999985695,0,0,0,0,35,TRUE,FALSE,FALSE,"middle","middle",9426.79999995232
"5c28b31a0091e40001ca5030",4,"Scooter",1,"Curtain",5,"Clock",3,FALSE,TRUE,FALSE,"right","middle",FALSE,TRUE,"right","[""left"",""middle""]",5311,0,33,FALSE,FALSE,38,1893,0,0,0,0,39,TRUE,FALSE,FALSE,"middle","middle",5381
"676580fa5bded2910a43ed67",4,"Fly",1,"Bug",4,"Mouse",3,TRUE,FALSE,FALSE,"middle","middle",FALSE,TRUE,"left","[""middle"",""right""]",2061,0,22,FALSE,TRUE,2,698,0,0,0,0,29,TRUE,FALSE,FALSE,"middle","middle",1407
"60e0dc6be0772b7dfdad9b2c",4,"Cloud",1,"Train",1,"Whistle",4,FALSE,FALSE,TRUE,"right","left",FALSE,TRUE,"middle","[""left"",""right""]",1414.70000004768,0,16,FALSE,TRUE,40,1257.89999997616,0,0,0,0,35,FALSE,FALSE,TRUE,"right","left",3846.60000002384
"63f77a5dde1ea03305e119e0",4,"Cloud",3,"Cable",5,"Rain",1,FALSE,FALSE,TRUE,"left","middle",FALSE,TRUE,"right","[""left"",""middle""]",2455,0,28,TRUE,FALSE,76,1217.69999999995,0,0,0,0,41,TRUE,FALSE,FALSE,"middle","middle",3607.89999999997
"5cafc17ace1fa80017a20d6b",4,"Crayons",1,"Gorilla",2,"Hoop",1,FALSE,FALSE,TRUE,"right","left",FALSE,TRUE,"middle","[""left"",""right""]",2888.59999999404,0,28,TRUE,TRUE,37,1665.20000000298,0,0,0,0,32,FALSE,FALSE,TRUE,"right","left",2255.59999999404
"66854f18db63152992b1a81e",4,"Tricycle",2,"Barn",1,"Sweater",4,FALSE,FALSE,TRUE,"middle","left",FALSE,TRUE,"right","[""left"",""middle""]",2778.60000000149,0,7,FALSE,FALSE,57,1084,0,0,0,0,4,FALSE,TRUE,FALSE,"right","left",4272.20000000298
"66537b0010ca11939058e52b",4,"Pig",1,"Motorcycle",4,"Sink",2,FALSE,TRUE,FALSE,"middle","right",FALSE,TRUE,"middle","[""left"",""right""]",2573.89999997616,0,21,FALSE,TRUE,97,1734.79999995232,0,0,0,0,19,FALSE,TRUE,FALSE,"middle","right",2212.19999992847
"669eb709554e753adddffe01",4,"Elbow",4,"Fish",2,"Teapot",4,FALSE,FALSE,TRUE,"right","middle",FALSE,TRUE,"left","[""middle"",""right""]",3382,0,20,TRUE,TRUE,59,1256,0,0,0,0,30,FALSE,FALSE,TRUE,"right","middle",6187.80000019073
"59dd90f6e75b450001a68dac",4,"Pig",1,"Bag",5,"Mouth",1,FALSE,FALSE,TRUE,"middle","right",FALSE,TRUE,"left","[""middle"",""right""]",2450.60000002384,0,32,TRUE,TRUE,100,1446.39999997616,0,0,0,0,40,FALSE,FALSE,TRUE,"middle","right",2815.59999996424
"5e121701dc79bd8a1a22ca99",4,"Mouth",1,"Shovel",3,"Pan",2,TRUE,FALSE,FALSE,"right","right",FALSE,TRUE,"left","[""middle"",""right""]",5340,0,18,FALSE,FALSE,28,978.299999952316,0,1,1,0,25,FALSE,FALSE,TRUE,"middle","right",4014.29999995232
"5fd393664d8c020163cb3ef2",4,"Sticker",1,"Keys",2,"Ankle",2,FALSE,FALSE,TRUE,"left","middle",FALSE,TRUE,"right","[""left"",""middle""]",2034.70000000298,0,15,FALSE,FALSE,73,4860.39999999851,0,0,0,0,35,TRUE,FALSE,FALSE,"middle","middle",5169.60000000149
"5c4d8d706b23ab0001a34af2",4,"Bird",1,"Turtle",1,"Whistle",5,FALSE,FALSE,TRUE,"right","middle",FALSE,TRUE,"left","[""middle"",""right""]",2685.19999999925,0,20,FALSE,TRUE,86,1195.69999999925,0,0,0,0,15,FALSE,FALSE,TRUE,"right","middle",5390.20000000298
"6142013d4dd8ae5ca2b4329b",4,"Cupcake",1,"Clock",2,"Flower",3,TRUE,FALSE,FALSE,"left","left",FALSE,TRUE,"middle","[""left"",""right""]",3124.89999985695,0,20,FALSE,FALSE,39,1284,0,0,0,0,15,FALSE,FALSE,TRUE,"right","left",1740.39999985695
"67c5d7d4bfda0ffd6d9a5ef8",4,"Bracelet",4,"Bandaid",4,"Shoes",1,TRUE,FALSE,FALSE,"left","left",FALSE,TRUE,"right","[""left"",""middle""]",2387,0,18,FALSE,FALSE,73,1125,0,0,0,0,13,FALSE,FALSE,TRUE,"middle","left",2393
"64a9858be9b52e570ffb3c1e",4,"Fingernail",5,"Car",1,"Zebra",5,FALSE,TRUE,FALSE,"left","middle",FALSE,TRUE,"left","[""middle"",""right""]",2776,0,35,TRUE,TRUE,96,530,0,0,0,0,30,FALSE,TRUE,FALSE,"left","middle",1831
"5c0873675b32d500012e3f2c",4,"Princess",2,"Leaf",5,"Spoon",5,FALSE,TRUE,FALSE,"middle","right",FALSE,TRUE,"middle","[""left"",""right""]",4955,0,18,FALSE,TRUE,67,1980,0,0,0,0,38,FALSE,TRUE,FALSE,"middle","right",5404
"5ecf5a78ba30501d2ca5e34b",4,"Sweater",3,"Boots",5,"Butterfly",2,FALSE,TRUE,FALSE,"left","middle",FALSE,TRUE,"left","[""middle"",""right""]",1644.79999999702,0,20,TRUE,FALSE,100,912.79999999702,0,0,0,0,15,TRUE,FALSE,FALSE,"middle","middle",2044.80000001192
"60461bfeeac81b04cf62f7a6",4,"Duck",1,"Socks",1,"Pie",4,FALSE,FALSE,TRUE,"left","middle",FALSE,TRUE,"right","[""left"",""middle""]",2267,0,10,FALSE,TRUE,99,1317,0,0,1,0,10,FALSE,FALSE,TRUE,"left","middle",5284
"67803b5508f3d995ef13696b",4,"Scooter",3,"Newspaper",2,"Baby",5,FALSE,TRUE,FALSE,"right","left",FALSE,TRUE,"right","[""left"",""middle""]",1597.70000000298,0,15,TRUE,TRUE,71,1364.90000000596,0,0,0,0,20,FALSE,TRUE,FALSE,"right","left",3199.59999999404
"6053e01a6a8e8516ba7d47a7",4,"Hips",3,"Bucket",1,"Hands",2,FALSE,TRUE,FALSE,"right","left",FALSE,TRUE,"right","[""left"",""middle""]",3948,0,17,FALSE,TRUE,50,1662.89999999851,0,0,0,0,22,FALSE,TRUE,FALSE,"right","left",7797.5
"5f1088e27a43fe0c64ca5814",4,"Radio",1,"Bee",5,"Elbow",1,FALSE,FALSE,TRUE,"left","right",FALSE,TRUE,"middle","[""left"",""right""]",3147.60000002384,0,10,FALSE,FALSE,15,1118.29999995232,0,0,0,0,8,FALSE,TRUE,FALSE,"middle","right",3725.80000007153
"5e787106a9d3b53ee4281eb1",4,"Rope",1,"Tissue",2,"Rice",4,TRUE,FALSE,FALSE,"middle","middle",FALSE,TRUE,"left","[""middle"",""right""]",1808,0,21,FALSE,FALSE,83,918,0,0,0,0,37,FALSE,FALSE,TRUE,"right","middle",1674.99999999997
"5de3c83c2033793be6591e53",4,"Sandals",1,"Elbow",2,"Pirate",3,TRUE,FALSE,FALSE,"middle","middle",FALSE,TRUE,"left","[""middle"",""right""]",2764.09999999404,0,15,FALSE,TRUE,84,1449.79999999702,0,0,0,0,15,TRUE,FALSE,FALSE,"middle","middle",844.09999999404
"5b681788ca518a0001c7a755",4,"Lion",1,"Head",2,"Crackers",3,FALSE,TRUE,FALSE,"right","middle",FALSE,TRUE,"right","[""left"",""middle""]",2159.09999990463,0,15,FALSE,TRUE,85,554.200000047684,0,0,0,0,35,FALSE,TRUE,FALSE,"right","middle",1272.90000009537
"5c4f5967aac8be0001716a65",4,"Balloons",4,"Pretzel",1,"Bug",4,FALSE,FALSE,TRUE,"left","right",FALSE,TRUE,"middle","[""left"",""right""]",1243.60000000149,0,17,FALSE,TRUE,100,476.5,0,0,1,0,40,FALSE,FALSE,TRUE,"left","right",1540.10000000149
"664c9ccdfb4921f641e9ff91",4,"Bacon",2,"Sand",3,"Bike",1,FALSE,FALSE,TRUE,"middle","left",FALSE,TRUE,"right","[""left"",""middle""]",2560.19999999925,0,20,FALSE,FALSE,96,1410.09999999963,0,0,0,0,40,TRUE,FALSE,FALSE,"left","left",2020.79999999888
"6151556ef73ba765c7ff55f6",4,"Jump rope",2,"Doughnut",2,"Keys",1,FALSE,FALSE,TRUE,"middle","right",FALSE,TRUE,"left","[""middle"",""right""]",3513.59999999404,0,22,TRUE,TRUE,36,1303.40000000596,0,0,1,0,14,FALSE,FALSE,TRUE,"middle","right",4089.70000000298
"681b781064a5701a5ceee3bc",4,"Truck",1,"Knee",3,"Heart",1,TRUE,FALSE,FALSE,"middle","middle",FALSE,TRUE,"left","[""middle"",""right""]",2968.69999980927,0,18,TRUE,TRUE,97,1158.40000009537,0,0,0,0,33,TRUE,FALSE,FALSE,"middle","middle",2788.40000009537
"6693a6ffc58de3bb9c5341de",4,"Head",4,"Jump rope",3,"Battery",2,TRUE,FALSE,FALSE,"left","left",FALSE,TRUE,"right","[""left"",""middle""]",3886.5,0,23,TRUE,TRUE,100,1465.80000007153,0,0,0,0,36,TRUE,FALSE,FALSE,"left","left",2431.5
"5ca6717bb54fe60001e22441",4,"Bat",3,"Arm",3,"Bell",4,FALSE,TRUE,FALSE,"right","middle",FALSE,TRUE,"right","[""left"",""middle""]",2095.60000000149,0,14,TRUE,TRUE,28,1097.10000000149,0,0,0,0,25,FALSE,TRUE,FALSE,"right","middle",4473.29999999702
"673e2923ed2dd1f79b63d19d",4,"Chicken",1,"Hoop",3,"Sandwich",3,TRUE,FALSE,FALSE,"middle","middle",FALSE,TRUE,"right","[""left"",""middle""]",4174.79999995232,0,25,TRUE,FALSE,49,1013.80000007153,0,0,0,0,35,FALSE,FALSE,TRUE,"left","middle",6829.70000004768
"669677d986a5a20026bbf20e",4,"Fork",3,"Slide",3,"Cherry",3,TRUE,FALSE,FALSE,"right","right",TRUE,TRUE,"left","[""middle"",""right""]",1517,0,18,FALSE,TRUE,75,2215.89999999851,0,0,0,0,15,TRUE,FALSE,FALSE,"right","right",2586.5
"62fccb9647eb07d62e9b6baa",4,"Toes",2,"Butterfly",2,"Tissue",1,FALSE,TRUE,FALSE,"left","middle",FALSE,TRUE,"left","[""middle"",""right""]",2325.30000001192,0,37,TRUE,FALSE,61,1534.30000001192,0,0,0,0,30,TRUE,FALSE,FALSE,"middle","middle",1972.30000001192
"56d56e550b5634000bdc5703",4,"Horse",1,"Doughnut",5,"Paper",4,TRUE,FALSE,FALSE,"middle","middle",FALSE,TRUE,"left","[""middle"",""right""]",3784.90000000002,0,22,TRUE,TRUE,73,2124.09999999986,0,0,0,0,27,TRUE,FALSE,FALSE,"middle","middle",4962
"631610af8e747093cd90e00d",4,"Hips",4,"Doughnut",2,"Rice",1,FALSE,FALSE,TRUE,"left","middle",FALSE,TRUE,"right","[""left"",""middle""]",1868.19999998808,0,17,FALSE,TRUE,74,1171,0,0,0,0,30,FALSE,FALSE,TRUE,"left","middle",2205.10000002384
"667be3b3495a08369501bcbb",4,"Teddy Bear",4,"Teeth",5,"Toothpaste",5,TRUE,FALSE,FALSE,"left","left",FALSE,TRUE,"middle","[""left"",""right""]",3031.40000000037,0,20,FALSE,TRUE,99,919.599999999628,0,0,0,0,19,TRUE,FALSE,FALSE,"left","left",3359.89999999944
"6730f2e20f5915ff4ad2c07d",4,"Shorts",1,"Grapes",3,"Leaf",5,TRUE,FALSE,FALSE,"middle","middle",TRUE,TRUE,"left","[""middle"",""right""]",1774.80000019073,0,17,TRUE,TRUE,97,1424,0,0,0,1,16,TRUE,FALSE,FALSE,"middle","middle",1545.69999980927
"5d8cef3c28e183001a335ab0",4,"Chopsticks",3,"Nose",5,"Comb",3,TRUE,FALSE,FALSE,"left","left",FALSE,TRUE,"right","[""left"",""middle""]",1501.69999980927,0,12,FALSE,TRUE,16,653.800000190735,0,0,0,0,22,TRUE,FALSE,FALSE,"left","left",1714.40000009537
"664ccdd7d581711cd0c36f2b",4,"Bear",3,"Pancakes",3,"Radio",3,FALSE,FALSE,TRUE,"left","right",FALSE,TRUE,"middle","[""left"",""right""]",2200.79999999981,0,20,FALSE,FALSE,0,1258,0,0,0,0,6,FALSE,TRUE,FALSE,"middle","right",2836.20000000019
"68a5eefd236f1c08d08ffce6",4,"Battery",4,"Zipper",4,"Fly",3,FALSE,FALSE,TRUE,"left","right",FALSE,TRUE,"middle","[""left"",""right""]",2760,0,20,FALSE,TRUE,27,923.700000017881,0,0,0,0,25,FALSE,FALSE,TRUE,"left","right",3388.90000000596
"5aafd9eff69e940001d88bf4",4,"Fire",3,"Wagon",1,"Barn",1,FALSE,FALSE,TRUE,"left","right",FALSE,TRUE,"middle","[""left"",""right""]",2158,0,21,FALSE,TRUE,0,1357,0,0,0,0,12,FALSE,FALSE,TRUE,"left","right",5588
"5a0c4184fe645f0001e9f5dd",4,"Crown",3,"Cake",5,"Vacuum",1,FALSE,TRUE,FALSE,"middle","right",FALSE,TRUE,"middle","[""left"",""right""]",1936.80000000005,0,15,FALSE,TRUE,0,651.899999999907,0,0,0,0,10,FALSE,TRUE,FALSE,"middle","right",4400.19999999972
"5f08e3eda7b89d16266b0cdf",4,"Waffle",3,"Glue",5,"Bell",3,FALSE,TRUE,FALSE,"left","right",FALSE,TRUE,"left","[""middle"",""right""]",1509,0,8,TRUE,TRUE,81,1823,0,0,0,0,30,FALSE,TRUE,FALSE,"left","right",2382
"66b507cc1a7e164991afbe17",4,"Rock",4,"Knife",2,"Lamp",4,FALSE,TRUE,FALSE,"left","middle",FALSE,TRUE,"left","[""middle"",""right""]",1789.29999999702,1,33,FALSE,FALSE,70,2014,0,0,0,0,25,TRUE,FALSE,FALSE,"middle","middle",2504.79999999702
"5e459f61418f610891628564",4,"Backpack",5,"Net",4,"Ghost",4,TRUE,FALSE,FALSE,"left","left",FALSE,TRUE,"right","[""left"",""middle""]",2217.39999961853,0,16,FALSE,TRUE,74,963.099999427795,0,0,0,0,40,TRUE,FALSE,FALSE,"left","left",1762.5999994278
"58c4ff360f0c150001ed45a4",4,"Drum",4,"Straw",1,"Pan",4,FALSE,TRUE,FALSE,"left","middle",FALSE,TRUE,"left","[""middle"",""right""]",2874.79999999702,1,30,FALSE,FALSE,61,1078.70000000298,0,0,0,0,20,FALSE,FALSE,TRUE,"right","middle",1323.09999999404
"6658e2cb395c02efada6a7a1",4,"Ladder",3,"Fence",4,"Shorts",3,FALSE,TRUE,FALSE,"left","middle",FALSE,TRUE,"left","[""middle"",""right""]",3025.20000000298,0,12,TRUE,FALSE,35,2607.09999999404,0,0,0,0,13,FALSE,FALSE,TRUE,"right","middle",3194.29999999702
"6614fb6af3c5aa23b962ea2d",4,"TV",2,"Rainbow",1,"Money",4,FALSE,FALSE,TRUE,"left","middle",FALSE,TRUE,"right","[""left"",""middle""]",1710.80000000075,0,10,FALSE,FALSE,4,1952.80000000075,0,0,0,0,5,FALSE,TRUE,FALSE,"right","middle",2454
"6329c13285c93cafdf51ed77",4,"Crackers",2,"Puppets",4,"Microphone",3,FALSE,FALSE,TRUE,"left","middle",FALSE,TRUE,"right","[""left"",""middle""]",2660.90000000037,0,21,FALSE,TRUE,56,1098.09999999963,0,0,0,0,17,FALSE,FALSE,TRUE,"left","middle",2113.79999999888
"6697cf02d714e7ee3fdedcec",4,"House",3,"Whistle",4,"Shirt",2,FALSE,FALSE,TRUE,"middle","right",FALSE,TRUE,"left","[""middle"",""right""]",1966,0,20,FALSE,TRUE,61,1076.60000002384,0,0,0,0,15,FALSE,FALSE,TRUE,"middle","right",1687.29999995232
"678f6e1f6a3d68ee8c1533f5",4,"Cake",3,"Hot Dog",3,"Fire",1,FALSE,TRUE,FALSE,"left","middle",FALSE,TRUE,"left","[""middle"",""right""]",2346.70000000298,0,10,FALSE,TRUE,0,807.100000008941,0,0,0,0,15,FALSE,TRUE,FALSE,"left","middle",3830.29999999702
"63f7ac13d942e94c18c92d4b",4,"Bacon",1,"Arm",2,"Watch",3,TRUE,FALSE,FALSE,"right","right",FALSE,TRUE,"left","[""middle"",""right""]",2118.5,0,16,TRUE,FALSE,37,1241.30000019073,0,0,0,0,20,FALSE,FALSE,TRUE,"middle","right",3468.90000009537
"60eda0b5e8f579f6a73d0f6b",4,"Bowl",1,"Apples",3,"Tiger",5,TRUE,FALSE,FALSE,"middle","middle",TRUE,TRUE,"left","[""middle"",""right""]",1984.69999992847,0,15,FALSE,TRUE,100,1297.60000002384,0,0,0,0,8,TRUE,FALSE,FALSE,"middle","middle",1562.60000002384
"5b52f4933234ab00014ca442",4,"Jacket",3,"Stool",5,"Grapes",3,TRUE,FALSE,FALSE,"right","right",TRUE,TRUE,"middle","[""left"",""right""]",1632.20000004768,0,18,FALSE,TRUE,100,1178.40000009537,0,0,0,0,42,TRUE,FALSE,FALSE,"right","right",1979.90000009537
"639844d5b2757a6f6377a69b",4,"Hamburger",4,"Chips",1,"Bag",2,FALSE,TRUE,FALSE,"right","left",FALSE,TRUE,"right","[""left"",""middle""]",1716.10000002384,0,28,FALSE,TRUE,81,919.199999928474,0,0,0,0,26,FALSE,TRUE,FALSE,"right","left",3864.89999997616
"629f6b8c65fcae219e245284",4,"Hoop",2,"Sink",3,"Earring",4,TRUE,FALSE,FALSE,"right","right",FALSE,TRUE,"middle","[""left"",""right""]",1793,0,31,TRUE,TRUE,81,602.10000000149,0,0,0,0,35,TRUE,FALSE,FALSE,"right","right",1540.10000000149
"5fda057989ec4c35a700f69f",4,"Toes",3,"Soda",5,"Cereal",4,TRUE,FALSE,FALSE,"right","right",FALSE,TRUE,"middle","[""left"",""right""]",5981.10000002384,0,23,FALSE,TRUE,99,1201.89999997616,0,0,0,0,15,TRUE,FALSE,FALSE,"right","right",2001
"63d4315d46c8643186d488f7",4,"Flashlight",4,"Plate",3,"Blocks",5,FALSE,FALSE,TRUE,"right","middle",FALSE,TRUE,"left","[""middle"",""right""]",3716.09999999963,0,18,FALSE,TRUE,43,2483,0,0,0,0,21,FALSE,FALSE,TRUE,"right","middle",4522.89999999851
"558fd02cfdf99b39cb035e5d",4,"Washcloth",5,"Popcorn",1,"Pie",1,TRUE,FALSE,FALSE,"left","left",FALSE,TRUE,"middle","[""left"",""right""]",1750,0,16,FALSE,FALSE,28,1234,0,0,0,0,11,FALSE,FALSE,TRUE,"right","left",2901
"66cbc2627559d53c0e3e4ac4",4,"Stick",5,"Fire",5,"Cable",3,FALSE,FALSE,TRUE,"left","right",FALSE,TRUE,"middle","[""left"",""right""]",3985.29999999702,0,22,TRUE,FALSE,78,985.699999988079,0,0,0,0,40,FALSE,TRUE,FALSE,"middle","right",2785.60000000894
"6762d29bf8f9712a46c73b62",4,"Slinky",4,"Puppets",5,"Comb",4,FALSE,FALSE,TRUE,"right","left",FALSE,TRUE,"middle","[""left"",""right""]",3869.60000000149,0,32,TRUE,TRUE,19,1610,0,0,0,0,27,FALSE,FALSE,TRUE,"right","left",5581.79999999702
"627a76b96bea55210aecbba9",4,"Jump rope",3,"Pillow",5,"Crackers",2,FALSE,TRUE,FALSE,"right","middle",FALSE,TRUE,"right","[""left"",""middle""]",1968.70000001788,0,10,FALSE,FALSE,87,1010.90000000596,0,0,0,0,40,TRUE,FALSE,FALSE,"middle","middle",3197.09999999404
"5cc53cf3291607001757c712",4,"Horse",2,"Marker",2,"Scissors",5,TRUE,FALSE,FALSE,"right","right",FALSE,TRUE,"left","[""middle"",""right""]",8152.19999998808,0,25,FALSE,TRUE,49,1277.39999997616,0,0,0,0,18,TRUE,FALSE,FALSE,"right","right",3310.60000002384
"608ab6edcbea5439dc2f537e",4,"Arm",4,"Ice Cream",4,"Butterfly",2,TRUE,FALSE,FALSE,"left","left",FALSE,TRUE,"middle","[""left"",""right""]",1938.60000000149,0,31,FALSE,TRUE,68,596.60000000149,0,0,0,0,23,TRUE,FALSE,FALSE,"left","left",3241.69999999925
"5ee0edcb962eba464f486b40",4,"Dinosaur",1,"Ostrich",5,"Tummy",4,TRUE,FALSE,FALSE,"left","left",FALSE,TRUE,"middle","[""left"",""right""]",5974.69999998808,0,19,TRUE,TRUE,69,924.09999999404,0,0,1,0,27,TRUE,FALSE,FALSE,"left","left",4730.5
"55848744fdf99b574f55ada0",4,"Triangle",2,"Mouth",3,"Diaper",1,TRUE,FALSE,FALSE,"middle","middle",FALSE,TRUE,"right","[""left"",""middle""]",3692.39999985695,0,19,FALSE,FALSE,0,1289.10000014305,0,0,0,0,10,FALSE,FALSE,TRUE,"left","middle",2670.79999995232
"59fabb7e38ed430001be6965",4,"Suitcase",1,"Stove",5,"Ostrich",5,FALSE,FALSE,TRUE,"right","left",FALSE,TRUE,"middle","[""left"",""right""]",2330.29999999981,0,15,FALSE,TRUE,85,1511.5,0,0,0,0,8,FALSE,FALSE,TRUE,"right","left",4308.70000000019
"65c347be7d456f4e0902823d",4,"Fingernail",3,"Pan",5,"Bug",2,FALSE,TRUE,FALSE,"right","left",FALSE,TRUE,"right","[""left"",""middle""]",3087.09999999404,0,22,FALSE,TRUE,19,1729.5,0,0,0,0,26,FALSE,TRUE,FALSE,"right","left",13719.6000000089
"66635ce30892c73e41fee639",4,"Tie",2,"Bean",4,"Coloring Book",3,FALSE,TRUE,FALSE,"right","left",FALSE,TRUE,"right","[""left"",""middle""]",1895.70000004768,0,22,FALSE,TRUE,53,2885.10000014305,0,0,0,0,36,FALSE,TRUE,FALSE,"right","left",2470.90000009537
"58a43e029a17120001d910d5",4,"Elephant",4,"Clown",2,"Kangaroo",1,FALSE,FALSE,TRUE,"middle","left",FALSE,TRUE,"right","[""left"",""middle""]",3698.29999923706,0,11,FALSE,TRUE,85,1025.5,0,0,0,0,12,FALSE,FALSE,TRUE,"middle","left",1708
"63af557b3d4f219c3226b7d6",4,"Hot Dog",3,"Owl",2,"Teeth",2,FALSE,TRUE,FALSE,"left","right",FALSE,TRUE,"left","[""middle"",""right""]",2629,0,18,TRUE,TRUE,12,1035.80000001192,0,0,0,0,9,FALSE,TRUE,FALSE,"left","right",2320.19999998808
"5b5ecd4b7757ed000198d434",4,"Movie",3,"Sofa",5,"Sunglasses",2,TRUE,FALSE,FALSE,"right","right",FALSE,TRUE,"left","[""middle"",""right""]",3433.59999999404,0,20,FALSE,TRUE,54,1114.09999999404,0,0,0,0,10,TRUE,FALSE,FALSE,"right","right",2734.70000000298
"62b1a5075f423b00f1d16e07",4,"Eyes",1,"Stove",1,"Head",1,TRUE,FALSE,FALSE,"right","right",FALSE,TRUE,"left","[""middle"",""right""]",908.60000000149,0,20,FALSE,FALSE,79,941.900000002235,0,0,0,1,15,FALSE,TRUE,FALSE,"left","right",1494.09999999776
"676572d1818b3b26ca9f6ce2",4,"Clock",2,"Grass",5,"CD",3,TRUE,FALSE,FALSE,"middle","middle",FALSE,TRUE,"left","[""middle"",""right""]",1229.80000001192,0,15,FALSE,TRUE,72,859.800000011921,0,0,0,0,30,TRUE,FALSE,FALSE,"middle","middle",2846.20000001788
"652359572fd30ff57dfea7fb",4,"Curtain",2,"Pool",2,"Hot Dog",5,FALSE,TRUE,FALSE,"right","left",FALSE,TRUE,"right","[""left"",""middle""]",2479.59999999404,0,20,FALSE,FALSE,74,1335.59999999404,0,0,0,0,40,TRUE,FALSE,FALSE,"left","left",2566.69999998808
"5e0fdde8b638537085d51b6c",4,"Yogurt",1,"Airplane",2,"Duck",4,FALSE,FALSE,TRUE,"left","middle",FALSE,TRUE,"right","[""left"",""middle""]",1781.10000002384,0,6,FALSE,FALSE,20,1053.19999992847,0,0,0,0,6,FALSE,TRUE,FALSE,"right","middle",2988.10000002384
"5b3e2334cdb4ce0001d93c51",4,"Cup",5,"Flower",4,"Bucket",4,FALSE,TRUE,FALSE,"left","middle",FALSE,TRUE,"left","[""middle"",""right""]",2851.39999999851,0,9,FALSE,TRUE,15,1151.09999999404,0,0,0,0,17,FALSE,TRUE,FALSE,"left","middle",4479.29999999702
"5d76ac914c93440001c03fd7",4,"String",4,"Pen",1,"Bead",4,FALSE,FALSE,TRUE,"right","middle",FALSE,TRUE,"left","[""middle"",""right""]",2494.30000001192,0,13,FALSE,TRUE,56,1848.80000001192,0,0,0,0,48,FALSE,FALSE,TRUE,"right","middle",6881.5
"572bcdbb34b25a0010ddd977",4,"Barn",3,"Candle",5,"Stamps",3,TRUE,FALSE,FALSE,"middle","middle",FALSE,TRUE,"right","[""left"",""middle""]",1808.60000000149,0,30,TRUE,TRUE,58,1177.39999999851,0,0,0,0,34,TRUE,FALSE,FALSE,"middle","middle",2592.69999999925
"676443cee5ece5f979de2bd2",4,"Water",3,"Vacuum",2,"Socks",4,FALSE,TRUE,FALSE,"left","middle",FALSE,TRUE,"left","[""middle"",""right""]",2501.79999995232,0,14,FALSE,FALSE,42,2195.89999997616,0,0,0,0,16,FALSE,FALSE,TRUE,"right","middle",6644.5
"60cfcb4c402bc3a7ff5d8f3d",4,"Comb",5,"Frog",1,"Boat",4,TRUE,FALSE,FALSE,"middle","middle",FALSE,TRUE,"left","[""middle"",""right""]",2639,0,20,FALSE,TRUE,76,899,0,0,1,0,38,TRUE,FALSE,FALSE,"middle","middle",2283.99999999994
"5da640b9640c5d00133f384b",4,"Dog",3,"Hat",2,"Nose",3,FALSE,TRUE,FALSE,"left","right",FALSE,TRUE,"left","[""middle"",""right""]",2383.30000001192,0,22,FALSE,TRUE,75,1106.89999997616,0,0,0,0,35,FALSE,TRUE,FALSE,"left","right",3704.90000003576
"5d951ede9b6f880018f63b6e",4,"Bread",3,"Helicopter",4,"Hammer",4,FALSE,FALSE,TRUE,"left","middle",FALSE,TRUE,"right","[""left"",""middle""]",2096,0,28,FALSE,TRUE,99,728,0,0,0,0,17,FALSE,FALSE,TRUE,"left","middle",3028
"66c20b634a3b292d25596fbc",4,"Books",1,"Pants",4,"Mailbox",5,FALSE,TRUE,FALSE,"right","middle",FALSE,TRUE,"right","[""left"",""middle""]",1982,0,10,FALSE,TRUE,46,1088.5,0,0,1,0,3,FALSE,TRUE,FALSE,"right","middle",2459.89999985695
"5f035c7ce9d86254e87992e4",4,"Giraffe",1,"Dinosaur",2,"Mouse",2,FALSE,FALSE,TRUE,"right","middle",FALSE,TRUE,"left","[""middle"",""right""]",2870.20000004768,0,21,TRUE,TRUE,95,1540,0,0,1,0,31,FALSE,FALSE,TRUE,"right","middle",1880.20000004768
"5c73d2817ed3a70001fc2929",4,"Brush",2,"Shirt",5,"Nest",4,FALSE,TRUE,FALSE,"left","middle",FALSE,TRUE,"left","[""middle"",""right""]",1429.59999990463,0,14,FALSE,FALSE,0,754.900000095367,0,0,0,0,10,FALSE,FALSE,TRUE,"right","middle",749.799999952316
"6367a6adb376bcde64f98559",4,"Sticker",5,"Cupcake",1,"Knife",4,FALSE,TRUE,FALSE,"middle","left",FALSE,TRUE,"middle","[""left"",""right""]",3454.19999998808,0,13,FALSE,FALSE,37,1326.19999998808,0,0,0,0,16,TRUE,FALSE,FALSE,"left","left",4586.30000001192
"67e069199f5b036960b0cc5f",4,"Spiderweb",4,"Train",1,"Newspaper",2,FALSE,TRUE,FALSE,"left","right",FALSE,TRUE,"left","[""middle"",""right""]",3286.19999999925,0,20,TRUE,FALSE,51,1155.5,0,0,0,0,16,FALSE,FALSE,TRUE,"middle","right",3149
"66661b1242b581f199e49f4c",4,"Queen",5,"Swing",5,"Envelope",4,FALSE,TRUE,FALSE,"middle","right",FALSE,TRUE,"middle","[""left"",""right""]",7505.29999995232,0,30,TRUE,FALSE,54,1199.89999985695,0,0,0,0,25,FALSE,FALSE,TRUE,"left","right",5936.59999990463
"66676a7edec232f186836137",4,"Squirrel",1,"Bacon",1,"Sticker",2,FALSE,TRUE,FALSE,"middle","left",FALSE,TRUE,"middle","[""left"",""right""]",1905,0,28,FALSE,TRUE,69,1492.19999998808,0,0,0,0,43,FALSE,TRUE,FALSE,"middle","left",2774.19999998808
"682ac1b6669fa157b2399b41",4,"Ladder",5,"Barn",2,"Box",4,FALSE,FALSE,TRUE,"middle","left",FALSE,TRUE,"right","[""left"",""middle""]",2241.80000019073,0,30,FALSE,FALSE,50,1772.29999995232,0,0,1,0,30,FALSE,TRUE,FALSE,"right","left",2608.30000019073
"6658c4239af9537eefdfbcc9",4,"Refrigerator",4,"Cupcake",5,"Drum",2,TRUE,FALSE,FALSE,"middle","middle",FALSE,TRUE,"left","[""middle"",""right""]",2105,0,18,FALSE,TRUE,68,911.800000071526,0,0,0,0,36,TRUE,FALSE,FALSE,"middle","middle",1479.70000004768
"5a993b151eda410001365a23",4,"Notebook",3,"Sand",1,"Bike",3,FALSE,TRUE,FALSE,"right","middle",FALSE,TRUE,"right","[""left"",""middle""]",3122.19999998808,0,13,FALSE,TRUE,47,1511.90000003576,0,0,0,0,33,FALSE,TRUE,FALSE,"right","middle",4376.89999997616
"66a90c2263a2823be078178e",4,"Knee",4,"Knife",5,"Radio",4,TRUE,FALSE,FALSE,"right","right",FALSE,TRUE,"left","[""middle"",""right""]",1927,0,13,FALSE,FALSE,52,1570,0,0,0,0,20,FALSE,FALSE,TRUE,"middle","right",2365
"665d3b8935ef56ce74c4761f",4,"House",4,"Sandals",1,"Waffle",5,FALSE,FALSE,TRUE,"right","left",FALSE,TRUE,"middle","[""left"",""right""]",2910.59999990463,0,16,FALSE,TRUE,89,1493.7000002861,0,0,0,0,18,FALSE,FALSE,TRUE,"right","left",2494.59999990463
"6792ae75a1d32bb9534a819f",5,"Backpack",2,"Boat",4,"Belt",3,TRUE,FALSE,FALSE,"left","left",FALSE,TRUE,"right","[""left"",""middle""]",3836.39999999106,0,19,FALSE,TRUE,62,2229.89999999106,0,0,0,0,30,TRUE,FALSE,FALSE,"left","left",4126.39999999106
"5e3f04fdb721da159417a725",5,"Box",4,"Truck",4,"Pen",4,FALSE,FALSE,TRUE,"right","middle",FALSE,TRUE,"left","[""middle"",""right""]",5478.09999999776,0,10,FALSE,TRUE,20,1301.60000000149,0,0,0,0,18,FALSE,FALSE,TRUE,"right","middle",4837.5
"670e09973d94a59502e84783",5,"Hot Dog",3,"Necklace",2,"Queen",3,TRUE,FALSE,FALSE,"left","left",FALSE,TRUE,"right","[""left"",""middle""]",1426.90000009537,0,20,FALSE,TRUE,77,892.5,0,0,0,0,39,TRUE,FALSE,FALSE,"left","left",1313.5
"66f5e385ef9ec0b27c796a5c",5,"Oranges",3,"Camera",3,"Video Tape",2,TRUE,FALSE,FALSE,"left","left",TRUE,TRUE,"right","[""left"",""middle""]",1709.30000007153,0,23,FALSE,TRUE,99,1136.79999995232,0,0,0,0,20,TRUE,FALSE,FALSE,"left","left",1725.29999995232
"664f74aec5c6e6331cd6e860",5,"Fork",5,"Pear",1,"Spaghetti",5,TRUE,FALSE,FALSE,"middle","middle",TRUE,TRUE,"right","[""left"",""middle""]",5277.20000004768,0,20,FALSE,TRUE,100,2532.5,0,0,0,0,35,TRUE,FALSE,FALSE,"middle","middle",6886.09999990463
"5c28b31a0091e40001ca5030",5,"Shoulders",5,"Diaper",3,"Snow",5,TRUE,FALSE,FALSE,"left","left",FALSE,TRUE,"right","[""left"",""middle""]",4783,0,33,FALSE,FALSE,28,1834,0,0,0,0,39,FALSE,TRUE,FALSE,"right","left",5035
"676580fa5bded2910a43ed67",5,"Grass",1,"Dresser",1,"Cable",4,TRUE,FALSE,FALSE,"right","right",FALSE,TRUE,"left","[""middle"",""right""]",1310.99999999999,0,22,FALSE,TRUE,69,766,0,0,0,0,29,TRUE,FALSE,FALSE,"right","right",1859
"60e0dc6be0772b7dfdad9b2c",5,"Bacon",4,"Clown",5,"Kangaroo",4,FALSE,TRUE,FALSE,"middle","left",FALSE,TRUE,"middle","[""left"",""right""]",2430.69999992847,0,16,FALSE,FALSE,44,1525.10000002384,0,0,0,0,35,TRUE,FALSE,FALSE,"left","left",4619.39999997616
"63f77a5dde1ea03305e119e0",5,"Bridge",3,"Video Tape",5,"Hair",5,FALSE,FALSE,TRUE,"middle","left",FALSE,TRUE,"right","[""left"",""middle""]",2252.69999999998,0,28,TRUE,FALSE,51,967.700000000012,0,0,0,0,41,FALSE,TRUE,FALSE,"right","left",2265.79999999999
"5cafc17ace1fa80017a20d6b",5,"Princess",4,"Can",4,"Candle",2,TRUE,FALSE,FALSE,"left","left",FALSE,TRUE,"middle","[""left"",""right""]",1776.39999999106,0,28,TRUE,TRUE,60,1272.79999999702,0,0,0,0,32,TRUE,FALSE,FALSE,"left","left",2662.90000000596
"66854f18db63152992b1a81e",5,"Kangaroo",5,"Rope",1,"Pancakes",1,FALSE,TRUE,FALSE,"right","middle",FALSE,TRUE,"right","[""left"",""middle""]",2463.80000000075,0,7,FALSE,TRUE,23,1330.69999999925,0,0,0,0,4,FALSE,TRUE,FALSE,"right","middle",3391.90000000224
"66537b0010ca11939058e52b",5,"Cherry",3,"Turtle",1,"Bagel",2,TRUE,FALSE,FALSE,"left","left",TRUE,TRUE,"middle","[""left"",""right""]",1926.10000002384,0,21,FALSE,TRUE,100,1167,0,0,0,0,19,TRUE,FALSE,FALSE,"left","left",1844.29999995232
