success,trial_type,trial_index,time_elapsed,internal_node_id,STUDY_ID,PROLIFIC_PID,SESSION_ID,participant_number,reconstruction_instructions,comprehend_reconstruction,nonpretend_instructions,comprehend_np,nickname,bonus,view_history,rt,responses,question_order,correct,test_part,grid,already_clicked,click_log,final_grid_state,num_clicks,cheat,round_points,misses,grid_number,white_cards_reported
1,fullscreen,0,4706,0.0-0.0,6851d3836698db9d924a5473,683f68350856a8abb3a6abe7,6851dd4c245327e02d98eabc,36,1,TRUE,1,TRUE,Player 36,73,"",,"","",,"","","","","",,,,,,
,instructions,1,109360,0.0-1.0,6851d3836698db9d924a5473,683f68350856a8abb3a6abe7,6851dd4c245327e02d98eabc,36,1,TRUE,1,TRUE,Player 36,73,"[{""""page_index"""":0,""""viewing_time"""":25077},{""""page_index"""":1,""""viewing_time"""":14079.5},{""""page_index"""":2,""""viewing_time"""":31777.200000047684},{""""page_index"""":3,""""viewing_time"""":12198.600000023842},{""""page_index"""":4,""""viewing_time"""":21519.599999904633}]",104652.600000024,"","",,"","","","","",,,,,,
,survey-multi-choice,2,156199,0.0-2.0,6851d3836698db9d924a5473,683f68350856a8abb3a6abe7,6851dd4c245327e02d98eabc,36,1,TRUE,1,TRUE,Player 36,73,"",46834.8999999762,"{""""Q0"""":""""... find all black cards whilst revealing as <b>few white<b> cards as possible""""}",[0],1,multichoice_part1,"","","","",,,,,,
,instructions,3,168398,0.0-4.0-0.0,6851d3836698db9d924a5473,683f68350856a8abb3a6abe7,6851dd4c245327e02d98eabc,36,1,TRUE,1,TRUE,Player 36,73,"[{""""page_index"""":0,""""viewing_time"""":12197.399999976158}]",12197.5999999046,"","",,"","","","","",,,,,,
,findSquares,4,195727,0.0-4.0-1.0,6851d3836698db9d924a5473,683f68350856a8abb3a6abe7,6851dd4c245327e02d98eabc,36,1,TRUE,1,TRUE,Player 36,73,"",,"","",,"","[['0', '0', '1', '0'], ['1', '1', '1', '1'], ['1', '1', '1', '0'], ['0', '0', '0', '0']]","[[2, 2]]","{'i': [0, 0, 0, 1, 3, 2, 1, 2, 2, 1, 0, 3, 3, 1], 'j': [0, 3, 2, 2, 2, 1, 1, 0, 3, 3, 1, 1, 0, 0], 't': [2515, 5635, 7030.800000071526, 8629.100000023842, 11127, 12198.200000047684, 13126.600000023842, 16030.800000071526, 18407.800000071526, 19337.600000023842, 21707.700000047684, 23598, 24454.399999976158, 25314.600000023842], 'hit': ['0', '0', '1', '1', '0', '1', '1', '1', '0', '1', '0', '0', '0', '1'], 'b': []}","[['white', 'white', 'black', 'white'], ['black', 'black', 'black', 'black'], ['black', 'black', 'black', 'white'], ['white', 'white', 'white', 'unknown']]",14,0,1,,,
,instructions,5,210661,0.0-4.0-2.0,6851d3836698db9d924a5473,683f68350856a8abb3a6abe7,6851dd4c245327e02d98eabc,36,1,TRUE,1,TRUE,Player 36,73,"[{""""page_index"""":0,""""viewing_time"""":14933.199999928474}]",14933.5,"","",,"","","","","",,,,,,
,instructions,6,324001,0.0-4.0-3.0,6851d3836698db9d924a5473,683f68350856a8abb3a6abe7,6851dd4c245327e02d98eabc,36,1,TRUE,1,TRUE,Player 36,73,"[{""""page_index"""":0,""""viewing_time"""":104099.89999997616},{""""page_index"""":1,""""viewing_time"""":9238.600000023842}]",113338.799999952,"","",,"","","","","",,,,,,
,findSquares,7,348826,0.0-4.0-4.0-0.0,6851d3836698db9d924a5473,683f68350856a8abb3a6abe7,6851dd4c245327e02d98eabc,36,1,TRUE,1,TRUE,Player 36,73,"",,"","",,non-pretend,"[['0', '0', '0', '0', '0', '0'], ['0', '0', '0', '0', '0', '0'], ['0', '0', '1', '1', '0', '0'], ['0', '0', '1', '1', '0', '0'], ['1', '1', '0', '0', '1', '1'], ['1', '0', '0', '0', '0', '1']]","[[2, 2], [4, 1], [4, 5]]","{'i': [2, 1, 3, 3, 4, 5, 5, 4, 5, 3, 5], 'j': [3, 3, 3, 2, 0, 0, 1, 4, 4, 5, 5], 't': [3273.1999999284744, 6020.199999928474, 7674.799999952316, 8664.799999952316, 11041.799999952316, 12137.899999976158, 13141.5, 16886.600000023842, 19157.100000023842, 21693.5, 22816.399999976158], 'hit': ['1', '0', '1', '1', '1', '1', '0', '1', '0', '0', '1'], 'b': []}","[['unknown', 'unknown', 'unknown', 'unknown', 'unknown', 'unknown'], ['unknown', 'unknown', 'unknown', 'white', 'unknown', 'unknown'], ['unknown', 'unknown', 'black', 'black', 'unknown', 'unknown'], ['unknown', 'unknown', 'black', 'black', 'unknown', 'white'], ['black', 'black', 'unknown', 'unknown', 'black', 'black'], ['black', 'white', 'unknown', 'unknown', 'white', 'black']]",11,0,22,,2,
,instructions,8,355958,0.0-4.0-4.0-1.0,6851d3836698db9d924a5473,683f68350856a8abb3a6abe7,6851dd4c245327e02d98eabc,36,1,TRUE,1,TRUE,Player 36,73,"[{""""page_index"""":0,""""viewing_time"""":7131.600000023842}]",7131.79999995232,"","",,"","","","","",,,,,,
,findSquares,9,410316,0.0-4.0-4.0-0.1,6851d3836698db9d924a5473,683f68350856a8abb3a6abe7,6851dd4c245327e02d98eabc,36,1,TRUE,1,TRUE,Player 36,73,"",,"","",,non-pretend,"[['1', '1', '1', '0', '0', '1'], ['0', '0', '0', '0', '0', '1'], ['0', '0', '0', '0', '0', '0'], ['0', '0', '0', '0', '1', '0'], ['1', '1', '0', '1', '1', '0'], ['0', '0', '0', '0', '0', '0']]","[[0, 1], [0, 5], [4, 0], [4, 4]]","{'i': [0, 1, 1, 2, 0, 5, 4, 4, 5, 3, 4, 3, 1, 2, 1, 0, 4, 0, 3], 'j': [4, 5, 4, 5, 0, 4, 5, 3, 0, 0, 1, 3, 0, 2, 1, 2, 2, 3, 4], 't': [2488.2999999523163, 4452.099999904633, 7010.599999904633, 8097, 9807.799999952316, 15431.799999952316, 16467, 17601.699999928474, 19601.799999952316, 21073.099999904633, 21658.099999904633, 33913.199999928474, 35696.299999952316, 39544.699999928474, 40595.699999928474, 41630.199999928474, 46341.39999997616, 48537.39999997616, 52343.699999928474], 'hit': ['0', '1', '0', '0', '1', '0', '0', '1', '0', '0', '1', '0', '0', '0', '0', '1', '0', '0', '1'], 'b': []}","[['black', 'black', 'black', 'white', 'white', 'black'], ['white', 'white', 'unknown', 'unknown', 'white', 'black'], ['unknown', 'unknown', 'white', 'unknown', 'unknown', 'white'], ['white', 'unknown', 'unknown', 'white', 'black', 'unknown'], ['black', 'black', 'white', 'black', 'black', 'white'], ['white', 'unknown', 'unknown', 'unknown', 'white', 'unknown']]",19,0,13,,10,
,instructions,10,414143,0.0-4.0-4.0-1.1,6851d3836698db9d924a5473,683f68350856a8abb3a6abe7,6851dd4c245327e02d98eabc,36,1,TRUE,1,TRUE,Player 36,73,"[{""""page_index"""":0,""""viewing_time"""":3825.7000000476837}]",3826.10000002384,"","",,"","","","","",,,,,,
,findSquares,11,456488,0.0-4.0-4.0-0.2,6851d3836698db9d924a5473,683f68350856a8abb3a6abe7,6851dd4c245327e02d98eabc,36,1,TRUE,1,TRUE,Player 36,73,"",,"","",,non-pretend,"[['0', '0', '0', '0', '0', '0'], ['0', '0', '1', '1', '0', '0'], ['0', '0', '1', '0', '0', '0'], ['0', '1', '0', '0', '1', '0'], ['0', '1', '0', '0', '1', '1'], ['0', '1', '0', '0', '1', '0']]","[[1, 2], [4, 4], [5, 1]]","{'i': [0, 1, 2, 4, 4, 2, 3, 4, 1, 3, 3, 2, 1, 5], 'j': [2, 1, 2, 1, 5, 3, 1, 3, 3, 4, 5, 1, 4, 4], 't': [3822.2000000476837, 4667, 6312.300000071526, 10467.200000047684, 12698.5, 17194.100000023842, 18559, 22662.300000071526, 25896, 29089.100000023842, 35614.89999997616, 37090.300000071526, 38905.10000002384, 40338.5], 'hit': ['0', '0', '1', '1', '1', '0', '1', '0', '1', '1', '0', '0', '0', '1'], 'b': []}","[['unknown', 'unknown', 'white', 'unknown', 'unknown', 'unknown'], ['unknown', 'white', 'black', 'black', 'white', 'unknown'], ['unknown', 'white', 'black', 'white', 'unknown', 'unknown'], ['unknown', 'black', 'unknown', 'unknown', 'black', 'white'], ['unknown', 'black', 'unknown', 'white', 'black', 'black'], ['unknown', 'black', 'unknown', 'unknown', 'black', 'unknown']]",14,0,19,,9,
,instructions,12,460338,0.0-4.0-4.0-1.2,6851d3836698db9d924a5473,683f68350856a8abb3a6abe7,6851dd4c245327e02d98eabc,36,1,TRUE,1,TRUE,Player 36,73,"[{""""page_index"""":0,""""viewing_time"""":3848.5999999046326}]",3849.39999997616,"","",,"","","","","",,,,,,
,findSquares,13,638975,0.0-4.0-4.0-0.3,6851d3836698db9d924a5473,683f68350856a8abb3a6abe7,6851dd4c245327e02d98eabc,36,1,TRUE,1,TRUE,Player 36,73,"",,"","",,non-pretend,"[['0', '0', '0', '0', '0', '0'], ['0', '1', '0', '0', '1', '1'], ['0', '1', '0', '0', '0', '0'], ['0', '0', '0', '0', '0', '1'], ['1', '1', '1', '0', '1', '1'], ['0', '0', '0', '0', '0', '0']]","[[1, 1], [1, 5], [3, 5], [4, 0]]","{'i': [4, 3, 4, 0, 1, 1, 1, 0, 2, 4, 2, 2, 4], 'j': [1, 4, 5, 5, 4, 0, 2, 1, 1, 4, 2, 4, 2], 't': [145954.20000004768, 151032, 151902, 153819.10000002384, 155471.70000004768, 160894.40000009537, 162560.5, 163586.90000009537, 164396.80000007153, 171544, 174663.80000007153, 175661.5, 176616], 'hit': ['1', '0', '1', '0', '1', '0', '0', '0', '1', '1', '0', '0', '1'], 'b': []}","[['unknown', 'white', 'unknown', 'unknown', 'unknown', 'white'], ['white', 'black', 'white', 'unknown', 'black', 'black'], ['unknown', 'black', 'white', 'unknown', 'white', 'unknown'], ['unknown', 'unknown', 'unknown', 'unknown', 'white', 'black'], ['black', 'black', 'black', 'unknown', 'black', 'black'], ['unknown', 'unknown', 'unknown', 'unknown', 'unknown', 'unknown']]",13,0,19,,7,
,instructions,14,642683,0.0-4.0-4.0-1.3,6851d3836698db9d924a5473,683f68350856a8abb3a6abe7,6851dd4c245327e02d98eabc,36,1,TRUE,1,TRUE,Player 36,73,"[{""""page_index"""":0,""""viewing_time"""":3706.2999999523163}]",3706.89999997616,"","",,"","","","","",,,,,,
,instructions,15,651092,0.0-4.0-5.0,6851d3836698db9d924a5473,683f68350856a8abb3a6abe7,6851dd4c245327e02d98eabc,36,1,TRUE,1,TRUE,Player 36,73,"[{""""page_index"""":0,""""viewing_time"""":8408.200000047684}]",8408.39999997616,"","",,"","","","","",,,,,,
,instructions,16,720427,0.0-4.0-6.0-0.0,6851d3836698db9d924a5473,683f68350856a8abb3a6abe7,6851dd4c245327e02d98eabc,36,1,TRUE,1,TRUE,Player 36,73,"[{""""page_index"""":0,""""viewing_time"""":13856.399999976158},{""""page_index"""":1,""""viewing_time"""":30030.5},{""""page_index"""":2,""""viewing_time"""":6171.600000023842},{""""page_index"""":3,""""viewing_time"""":19274.5}]",69333.2999999523,"","",,"","","","","",,,,,,
,survey-multi-choice,17,735378,0.0-4.0-6.0-1.0,6851d3836698db9d924a5473,683f68350856a8abb3a6abe7,6851dd4c245327e02d98eabc,36,1,TRUE,1,TRUE,Player 36,73,"",14948.7999999523,"{""""Q0"""":""""... <b>repeat</b> my clicks from the first round, in the same order""""}",[0],1,multichoice_reconstruction,"","","","",,,,,,
,survey-html-form,18,778021,0.0-4.0-7.0,6851d3836698db9d924a5473,683f68350856a8abb3a6abe7,6851dd4c245327e02d98eabc,36,1,TRUE,1,TRUE,Player 36,73,"",42638,"{""""white_count"""":""""4""""}","",,white_card_report,"","","","",,,,,,4
,instructions,19,802299,0.0-4.0-8.0,6851d3836698db9d924a5473,683f68350856a8abb3a6abe7,6851dd4c245327e02d98eabc,36,1,TRUE,1,TRUE,Player 36,73,"[{""""page_index"""":0,""""viewing_time"""":24276.5}]",24277,"","",,"","","","","",,,,,,
,findSquares,20,840212,0.0-4.0-9.0,6851d3836698db9d924a5473,683f68350856a8abb3a6abe7,6851dd4c245327e02d98eabc,36,1,TRUE,1,TRUE,Player 36,73,"",,"","",,memory,"[['0', '0', '0', '0', '0', '0'], ['0', '0', '0', '0', '0', '0'], ['0', '0', '1', '1', '0', '0'], ['0', '0', '1', '1', '0', '0'], ['1', '1', '0', '0', '1', '1'], ['1', '0', '0', '0', '0', '1']]","[[2, 2], [4, 1], [4, 5]]","{'i': [2, 3, 5, 5, 4, 4, 5, 3, 3, 1, 2, 3, 3, 4, 5], 'j': [3, 5, 5, 4, 4, 0, 1, 1, 0, 2, 4, 3, 2, 2, 0], 't': [9327.299999952316, 11517.799999952316, 12454.199999928474, 14134.5, 15052.099999904633, 18964.199999928474, 19819.599999904633, 21755.899999976158, 22526.5, 24078.899999976158, 26570, 27739.599999904633, 29338.5, 34685, 35899.5], 'hit': ['1', '0', '1', '0', '1', '1', '0', '0', '0', '0', '0', '1', '1', '0', '1'], 'b': []}","[['unknown', 'unknown', 'unknown', 'unknown', 'unknown', 'unknown'], ['unknown', 'unknown', 'white', 'unknown', 'unknown', 'unknown'], ['unknown', 'unknown', 'black', 'black', 'white', 'unknown'], ['white', 'white', 'black', 'black', 'unknown', 'white'], ['black', 'black', 'white', 'unknown', 'black', 'black'], ['black', 'white', 'unknown', 'unknown', 'white', 'black']]",15,0,18,,2,
,survey-text,21,851040,0.0-4.0-10.0,6851d3836698db9d924a5473,683f68350856a8abb3a6abe7,6851dd4c245327e02d98eabc,36,1,TRUE,1,TRUE,Player 36,73,"",10821,"{""""worker_comments"""":""""""""}","",,"","","","","",,,,,,
,instructions,22,871740,0.0-4.0-11.0,6851d3836698db9d924a5473,683f68350856a8abb3a6abe7,6851dd4c245327e02d98eabc,36,1,TRUE,1,TRUE,Player 36,73,"[{""""page_index"""":0,""""viewing_time"""":20698.300000071526}]",20698.8000000715,"","",,"","","","","",,,,,,
1,fullscreen,0,4465,0.0-0.0,6851d3836698db9d924a5473,5838861383a1cc0001f3f258,6851d42b19c7e315d9b69830,22,1,TRUE,1,TRUE,Player 22,56,"",,"","",,"","","","","",,,,,,
,instructions,1,54332,0.0-1.0,6851d3836698db9d924a5473,5838861383a1cc0001f3f258,6851d42b19c7e315d9b69830,22,1,TRUE,1,TRUE,Player 22,56,"[{""""page_index"""":0,""""viewing_time"""":18430.400000095367},{""""page_index"""":1,""""viewing_time"""":13274.900000095367},{""""page_index"""":2,""""viewing_time"""":12430.699999809265},{""""page_index"""":3,""""viewing_time"""":5728.800000190735}]",49865.3000001907,"","",,"","","","","",,,,,,
,survey-multi-choice,2,62889,0.0-2.0,6851d3836698db9d924a5473,5838861383a1cc0001f3f258,6851d42b19c7e315d9b69830,22,1,TRUE,1,TRUE,Player 22,56,"",8554.09999990463,"{""""Q0"""":""""... find all black cards whilst revealing as <b>few white<b> cards as possible""""}",[0],1,multichoice_part1,"","","","",,,,,,
,instructions,3,66622,0.0-4.0-0.0,6851d3836698db9d924a5473,5838861383a1cc0001f3f258,6851d42b19c7e315d9b69830,22,1,TRUE,1,TRUE,Player 22,56,"[{""""page_index"""":0,""""viewing_time"""":3731.7000000476837}]",3732.40000009537,"","",,"","","","","",,,,,,
,findSquares,4,92459,0.0-4.0-1.0,6851d3836698db9d924a5473,5838861383a1cc0001f3f258,6851d42b19c7e315d9b69830,22,1,TRUE,1,TRUE,Player 22,56,"",,"","",,"","[['0', '0', '1', '0'], ['1', '1', '1', '1'], ['1', '1', '1', '0'], ['0', '0', '0', '0']]","[[2, 2]]","{'i': [0, 1, 3, 2, 2, 1, 0, 1, 0, 2, 3, 3, 0, 1], 'j': [2, 2, 2, 1, 0, 0, 0, 1, 1, 3, 1, 0, 3, 3], 't': [2738.399999856949, 4178.899999856949, 6477.899999856949, 7862.200000047684, 9690.700000047684, 10970.299999952316, 12577.099999904633, 13927.700000047684, 15202, 17576.700000047684, 19143.89999985695, 21238.89999985695, 22586.799999952316, 23809.700000047684], 'hit': ['1', '1', '0', '1', '1', '1', '0', '1', '0', '0', '0', '0', '0', '1'], 'b': []}","[['white', 'white', 'black', 'white'], ['black', 'black', 'black', 'black'], ['black', 'black', 'black', 'white'], ['white', 'white', 'white', 'unknown']]",14,0,1,,,
,instructions,5,98118,0.0-4.0-2.0,6851d3836698db9d924a5473,5838861383a1cc0001f3f258,6851d42b19c7e315d9b69830,22,1,TRUE,1,TRUE,Player 22,56,"[{""""page_index"""":0,""""viewing_time"""":5657.700000047684}]",5658,"","",,"","","","","",,,,,,
,instructions,6,132608,0.0-4.0-3.0,6851d3836698db9d924a5473,5838861383a1cc0001f3f258,6851d42b19c7e315d9b69830,22,1,TRUE,1,TRUE,Player 22,56,"[{""""page_index"""":0,""""viewing_time"""":30969.699999809265},{""""page_index"""":1,""""viewing_time"""":3518.600000143051}]",34488.899999857,"","",,"","","","","",,,,,,
,findSquares,7,165538,0.0-4.0-4.0-0.0,6851d3836698db9d924a5473,5838861383a1cc0001f3f258,6851d42b19c7e315d9b69830,22,1,TRUE,1,TRUE,Player 22,56,"",,"","",,non-pretend,"[['1', '1', '0', '0', '1', '1'], ['0', '0', '0', '0', '0', '0'], ['0', '0', '0', '0', '0', '0'], ['1', '0', '0', '0', '0', '1'], ['1', '1', '0', '0', '1', '1'], ['0', '0', '0', '0', '0', '0']]","[[0, 1], [0, 5], [4, 0], [4, 4]]","{'i': [0, 1, 0, 1, 0, 0, 1, 1, 5, 3, 4, 4, 4, 3, 3, 5, 5, 3], 'j': [2, 1, 0, 0, 4, 3, 5, 4, 4, 4, 5, 3, 1, 0, 1, 0, 5, 5], 't': [3801.899999856949, 4978.5, 6437.799999952316, 7707.599999904633, 9303.799999952316, 11090.599999904633, 12299.200000047684, 13493.200000047684, 16103, 17332.89999985695, 18590.200000047684, 20048.799999952316, 21670.700000047684, 23468.700000047684, 25459.5, 27915.799999952316, 29635.799999952316, 30924.89999985695], 'hit': ['0', '0', '1', '0', '1', '0', '0', '0', '0', '0', '1', '0', '1', '1', '0', '0', '0', '1'], 'b': []}","[['black', 'black', 'white', 'white', 'black', 'black'], ['white', 'white', 'unknown', 'unknown', 'white', 'white'], ['unknown', 'unknown', 'unknown', 'unknown', 'unknown', 'unknown'], ['black', 'white', 'unknown', 'unknown', 'white', 'black'], ['black', 'black', 'unknown', 'white', 'black', 'black'], ['white', 'unknown', 'unknown', 'unknown', 'white', 'white']]",18,0,14,,4,
,instructions,8,168364,0.0-4.0-4.0-1.0,6851d3836698db9d924a5473,5838861383a1cc0001f3f258,6851d42b19c7e315d9b69830,22,1,TRUE,1,TRUE,Player 22,56,"[{""""page_index"""":0,""""viewing_time"""":2824.9000000953674}]",2825.60000014305,"","",,"","","","","",,,,,,
,findSquares,9,202705,0.0-4.0-4.0-0.1,6851d3836698db9d924a5473,5838861383a1cc0001f3f258,6851d42b19c7e315d9b69830,22,1,TRUE,1,TRUE,Player 22,56,"",,"","",,non-pretend,"[['0', '0', '0', '0', '0', '0'], ['0', '1', '0', '0', '1', '1'], ['0', '1', '0', '0', '0', '0'], ['0', '0', '0', '0', '0', '1'], ['1', '1', '1', '0', '1', '1'], ['0', '0', '0', '0', '0', '0']]","[[1, 1], [1, 5], [3, 5], [4, 0]]","{'i': [0, 1, 1, 0, 1, 1, 2, 3, 4, 4, 5, 3, 4, 4, 0, 3, 4], 'j': [5, 4, 3, 1, 0, 2, 1, 0, 1, 5, 5, 4, 4, 3, 4, 1, 2], 't': [4643.900000095367, 5852, 7799.5, 10205.299999952316, 11471.799999952316, 12817.799999952316, 14149.5, 16732.10000014305, 18126.400000095367, 20832, 22213.10000014305, 23417.200000047684, 24690.299999952316, 27278.799999952316, 28745.799999952316, 31057.799999952316, 32324.200000047684], 'hit': ['0', '1', '0', '0', '0', '0', '1', '0', '1', '1', '0', '0', '1', '0', '0', '0', '1'], 'b': []}","[['unknown', 'white', 'unknown', 'unknown', 'white', 'white'], ['white', 'black', 'white', 'white', 'black', 'black'], ['unknown', 'black', 'unknown', 'unknown', 'unknown', 'unknown'], ['white', 'white', 'unknown', 'unknown', 'white', 'black'], ['black', 'black', 'black', 'white', 'black', 'black'], ['unknown', 'unknown', 'unknown', 'unknown', 'unknown', 'white']]",17,0,15,,7,
,instructions,10,205881,0.0-4.0-4.0-1.1,6851d3836698db9d924a5473,5838861383a1cc0001f3f258,6851d42b19c7e315d9b69830,22,1,TRUE,1,TRUE,Player 22,56,"[{""""page_index"""":0,""""viewing_time"""":3172.899999856949}]",3173.59999990463,"","",,"","","","","",,,,,,
,findSquares,11,242518,0.0-4.0-4.0-0.2,6851d3836698db9d924a5473,5838861383a1cc0001f3f258,6851d42b19c7e315d9b69830,22,1,TRUE,1,TRUE,Player 22,56,"",,"","",,non-pretend,"[['0', '0', '0', '0', '0', '0'], ['0', '0', '1', '1', '0', '0'], ['0', '0', '1', '0', '0', '0'], ['0', '1', '0', '0', '1', '0'], ['0', '1', '0', '0', '1', '1'], ['0', '1', '0', '0', '1', '0']]","[[1, 2], [4, 4], [5, 1]]","{'i': [0, 1, 2, 4, 4, 4, 4, 5, 5, 5, 3, 3, 2, 5, 1, 0, 2, 1, 3, 2, 3], 'j': [2, 1, 2, 5, 1, 2, 0, 2, 0, 5, 5, 4, 4, 4, 3, 3, 3, 4, 2, 1, 1], 't': [2482.7999999523163, 3533.5, 4652.599999904633, 6884, 8750.900000095367, 11293.799999952316, 12615.700000047684, 14620.599999904633, 16032.599999904633, 17343, 18585.5, 19902.200000047684, 21622.900000095367, 23016.099999904633, 25085.900000095367, 26669.200000047684, 28699.599999904633, 30033.099999904633, 31506.200000047684, 32677.700000047684, 34621.799999952316], 'hit': ['0', '0', '1', '1', '1', '0', '0', '0', '0', '0', '0', '1', '0', '1', '1', '0', '0', '0', '0', '0', '1'], 'b': []}","[['unknown', 'unknown', 'white', 'white', 'unknown', 'unknown'], ['unknown', 'white', 'black', 'black', 'white', 'unknown'], ['unknown', 'white', 'black', 'white', 'white', 'unknown'], ['unknown', 'black', 'white', 'unknown', 'black', 'white'], ['white', 'black', 'white', 'unknown', 'black', 'black'], ['white', 'black', 'white', 'unknown', 'black', 'white']]",21,0,12,,9,
,instructions,12,244742,0.0-4.0-4.0-1.2,6851d3836698db9d924a5473,5838861383a1cc0001f3f258,6851d42b19c7e315d9b69830,22,1,TRUE,1,TRUE,Player 22,56,"[{""""page_index"""":0,""""viewing_time"""":2223.2999999523163}]",2224.19999980927,"","",,"","","","","",,,,,,
,findSquares,13,277284,0.0-4.0-4.0-0.3,6851d3836698db9d924a5473,5838861383a1cc0001f3f258,6851d42b19c7e315d9b69830,22,1,TRUE,1,TRUE,Player 22,56,"",,"","",,non-pretend,"[['0', '0', '0', '0', '0', '0'], ['0', '0', '0', '0', '0', '0'], ['0', '1', '1', '1', '0', '0'], ['0', '0', '1', '0', '0', '1'], ['1', '1', '0', '0', '0', '1'], ['1', '0', '0', '0', '0', '1']]","[[2, 2], [4, 1], [4, 5]]","{'i': [2, 4, 3, 1, 2, 4, 2, 4, 5, 5, 5, 5, 2, 1, 1, 2, 3, 3], 'j': [1, 0, 5, 2, 3, 4, 5, 2, 1, 0, 5, 4, 0, 1, 3, 4, 3, 2], 't': [2108.2000000476837, 4656, 6446, 9125.400000095367, 10282.400000095367, 12345.300000190735, 13811.5, 15082.100000143051, 16291, 18304.5, 20265.5, 22269.5, 23605.10000014305, 24745.5, 26122.700000047684, 27405.200000047684, 28819.300000190735, 30526.200000047684], 'hit': ['1', '1', '1', '0', '1', '0', '0', '0', '0', '1', '1', '0', '0', '0', '0', '0', '0', '1'], 'b': []}","[['unknown', 'unknown', 'unknown', 'unknown', 'unknown', 'unknown'], ['unknown', 'white', 'white', 'white', 'unknown', 'unknown'], ['white', 'black', 'black', 'black', 'white', 'white'], ['unknown', 'unknown', 'black', 'white', 'unknown', 'black'], ['black', 'black', 'white', 'unknown', 'white', 'black'], ['black', 'white', 'unknown', 'unknown', 'white', 'black']]",18,0,15,,8,
,instructions,14,279621,0.0-4.0-4.0-1.3,6851d3836698db9d924a5473,5838861383a1cc0001f3f258,6851d42b19c7e315d9b69830,22,1,TRUE,1,TRUE,Player 22,56,"[{""""page_index"""":0,""""viewing_time"""":2336.7999999523163}]",2337.10000014305,"","",,"","","","","",,,,,,
,instructions,15,282447,0.0-4.0-5.0,6851d3836698db9d924a5473,5838861383a1cc0001f3f258,6851d42b19c7e315d9b69830,22,1,TRUE,1,TRUE,Player 22,56,"[{""""page_index"""":0,""""viewing_time"""":2824.100000143051}]",2824.70000004768,"","",,"","","","","",,,,,,
,instructions,16,315574,0.0-4.0-6.0-0.0,6851d3836698db9d924a5473,5838861383a1cc0001f3f258,6851d42b19c7e315d9b69830,22,1,TRUE,1,TRUE,Player 22,56,"[{""""page_index"""":0,""""viewing_time"""":4680.699999809265},{""""page_index"""":1,""""viewing_time"""":13803.900000095367},{""""page_index"""":2,""""viewing_time"""":1830},{""""page_index"""":3,""""viewing_time"""":12810.599999904633}]",33125.7999999523,"","",,"","","","","",,,,,,
,survey-multi-choice,17,321892,0.0-4.0-6.0-1.0,6851d3836698db9d924a5473,5838861383a1cc0001f3f258,6851d42b19c7e315d9b69830,22,1,TRUE,1,TRUE,Player 22,56,"",6315.5,"{""""Q0"""":""""... <b>repeat</b> my clicks from the first round, in the same order""""}",[0],1,multichoice_reconstruction,"","","","",,,,,,
,survey-html-form,18,335268,0.0-4.0-7.0,6851d3836698db9d924a5473,5838861383a1cc0001f3f258,6851d42b19c7e315d9b69830,22,1,TRUE,1,TRUE,Player 22,56,"",13372.4000000954,"{""""white_count"""":""""12""""}","",,white_card_report,"","","","",,,,,,12
,instructions,19,350452,0.0-4.0-8.0,6851d3836698db9d924a5473,5838861383a1cc0001f3f258,6851d42b19c7e315d9b69830,22,1,TRUE,1,TRUE,Player 22,56,"[{""""page_index"""":0,""""viewing_time"""":15181.799999952316}]",15182.0999999046,"","",,"","","","","",,,,,,
,findSquares,20,392794,0.0-4.0-9.0,6851d3836698db9d924a5473,5838861383a1cc0001f3f258,6851d42b19c7e315d9b69830,22,1,TRUE,1,TRUE,Player 22,56,"",,"","",,memory,"[['1', '1', '0', '0', '1', '1'], ['0', '0', '0', '0', '0', '0'], ['0', '0', '0', '0', '0', '0'], ['1', '0', '0', '0', '0', '1'], ['1', '1', '0', '0', '1', '1'], ['0', '0', '0', '0', '0', '0']]","[[0, 1], [0, 5], [4, 0], [4, 4]]","{'i': [0, 0, 1, 1, 1, 0, 1, 3, 3, 4, 4, 5, 3, 4, 3], 'j': [0, 2, 2, 1, 5, 4, 4, 0, 1, 1, 2, 1, 4, 5, 5], 't': [4012.0999999046326, 13250.799999952316, 14938.599999904633, 16615.799999952316, 18832.200000047684, 20150.39999985695, 24489.200000047684, 27013.599999904633, 29545.700000047684, 30938.200000047684, 32198.700000047684, 34409.89999985695, 37905.700000047684, 39203.799999952316, 40334.5], 'hit': ['1', '0', '0', '0', '0', '1', '0', '1', '0', '1', '0', '0', '0', '1', '1'], 'b': []}","[['black', 'black', 'white', 'unknown', 'black', 'black'], ['unknown', 'white', 'white', 'unknown', 'white', 'white'], ['unknown', 'unknown', 'unknown', 'unknown', 'unknown', 'unknown'], ['black', 'white', 'unknown', 'unknown', 'white', 'black'], ['black', 'black', 'white', 'unknown', 'black', 'black'], ['unknown', 'white', 'unknown', 'unknown', 'unknown', 'unknown']]",15,0,17,,4,
,survey-text,21,421522,0.0-4.0-10.0,6851d3836698db9d924a5473,5838861383a1cc0001f3f258,6851d42b19c7e315d9b69830,22,1,TRUE,1,TRUE,Player 22,56,"",28725.0999999046,"{""""worker_comments"""":""""it was fun and the last one was challenging""""}","",,"","","","","",,,,,,
,instructions,22,434558,0.0-4.0-11.0,6851d3836698db9d924a5473,5838861383a1cc0001f3f258,6851d42b19c7e315d9b69830,22,1,TRUE,1,TRUE,Player 22,56,"[{""""page_index"""":0,""""viewing_time"""":13031.800000190735}]",13032.8000001907,"","",,"","","","","",,,,,,
1,fullscreen,0,23821,0.0-0.0,6851d3836698db9d924a5473,684603404d202cf69e3ddef3,6851dd96e691a3eeab1e17e3,37,1,TRUE,1,TRUE,Player 37,50,"",,"","",,"","","","","",,,,,,
,instructions,1,132266,0.0-1.0,6851d3836698db9d924a5473,684603404d202cf69e3ddef3,6851dd96e691a3eeab1e17e3,37,1,TRUE,1,TRUE,Player 37,50,"[{""""page_index"""":0,""""viewing_time"""":57792.799999999814},{""""page_index"""":1,""""viewing_time"""":13159.400000000373},{""""page_index"""":2,""""viewing_time"""":16729.200000000186},{""""page_index"""":3,""""viewing_time"""":12392.700000000186},{""""page_index"""":4,""""viewing_time"""":8366.699999999255}]",108441.2,"","",,"","","","","",,,,,,
,survey-multi-choice,2,146001,0.0-2.0,6851d3836698db9d924a5473,684603404d202cf69e3ddef3,6851dd96e691a3eeab1e17e3,37,1,TRUE,1,TRUE,Player 37,50,"",13734.0999999996,"{""""Q0"""":""""... find all black cards whilst revealing as <b>few white<b> cards as possible""""}",[0],1,multichoice_part1,"","","","",,,,,,
,instructions,3,154839,0.0-4.0-0.0,6851d3836698db9d924a5473,684603404d202cf69e3ddef3,6851dd96e691a3eeab1e17e3,37,1,TRUE,1,TRUE,Player 37,50,"[{""""page_index"""":0,""""viewing_time"""":8837}]",8837.09999999963,"","",,"","","","","",,,,,,
,findSquares,4,187201,0.0-4.0-1.0,6851d3836698db9d924a5473,684603404d202cf69e3ddef3,6851dd96e691a3eeab1e17e3,37,1,TRUE,1,TRUE,Player 37,50,"",,"","",,"","[['0', '0', '1', '0'], ['1', '1', '1', '1'], ['1', '1', '1', '0'], ['0', '0', '0', '0']]","[[2, 2]]","{'i': [1, 0, 0, 0, 2, 3, 2, 1, 1, 2, 3, 3, 1], 'j': [2, 2, 3, 1, 1, 2, 3, 1, 0, 0, 0, 1, 3], 't': [3931, 6106.799999999814, 10152.399999999441, 11789.599999999627, 13603.599999999627, 17001.39999999944, 18051.39999999944, 19244.099999999627, 21942, 23446.299999999814, 28023.599999999627, 28771, 30355.700000000186], 'hit': ['1', '1', '0', '0', '1', '0', '0', '1', '1', '1', '0', '0', '1'], 'b': []}","[['unknown', 'white', 'black', 'white'], ['black', 'black', 'black', 'black'], ['black', 'black', 'black', 'white'], ['white', 'white', 'white', 'unknown']]",13,0,2,,,
,instructions,5,205290,0.0-4.0-2.0,6851d3836698db9d924a5473,684603404d202cf69e3ddef3,6851dd96e691a3eeab1e17e3,37,1,TRUE,1,TRUE,Player 37,50,"[{""""page_index"""":0,""""viewing_time"""":18087.299999999814}]",18087.3999999994,"","",,"","","","","",,,,,,
,instructions,6,222633,0.0-4.0-3.0,6851d3836698db9d924a5473,684603404d202cf69e3ddef3,6851dd96e691a3eeab1e17e3,37,1,TRUE,1,TRUE,Player 37,50,"[{""""page_index"""":0,""""viewing_time"""":12959.200000000186},{""""page_index"""":1,""""viewing_time"""":4384.0999999996275}]",17343.4000000004,"","",,"","","","","",,,,,,
,findSquares,7,258037,0.0-4.0-4.0-0.0,6851d3836698db9d924a5473,684603404d202cf69e3ddef3,6851dd96e691a3eeab1e17e3,37,1,TRUE,1,TRUE,Player 37,50,"",,"","",,non-pretend,"[['0', '0', '0', '0', '0', '0'], ['0', '0', '1', '1', '0', '0'], ['0', '0', '1', '1', '0', '0'], ['0', '1', '0', '0', '1', '0'], ['0', '1', '0', '0', '1', '0'], ['0', '1', '0', '0', '1', '0']]","[[1, 2], [4, 4], [5, 1]]","{'i': [4, 3, 3, 1, 0, 1, 0, 4, 5, 5, 3, 2, 5, 2, 1, 2, 4, 3, 2], 'j': [5, 4, 5, 3, 3, 4, 2, 1, 2, 0, 1, 4, 4, 1, 1, 2, 2, 2, 3], 't': [3038.100000000559, 4200.100000000559, 7202.800000000745, 8965, 10792, 11808.100000000559, 13040.600000000559, 15760.700000000186, 18918.60000000056, 19884.200000000186, 20639.300000000745, 22715.800000000745, 24103.200000000186, 26595.400000000373, 27293.800000000745, 29422.900000000373, 31878.700000000186, 32688.200000000186, 33387.90000000037], 'hit': ['0', '1', '0', '1', '0', '0', '0', '1', '0', '0', '1', '0', '1', '0', '0', '1', '0', '0', '1'], 'b': []}","[['unknown', 'unknown', 'white', 'white', 'unknown', 'unknown'], ['unknown', 'white', 'black', 'black', 'white', 'unknown'], ['unknown', 'white', 'black', 'black', 'white', 'unknown'], ['unknown', 'black', 'white', 'unknown', 'black', 'white'], ['unknown', 'black', 'white', 'unknown', 'black', 'white'], ['white', 'black', 'white', 'unknown', 'black', 'unknown']]",19,0,14,,3,
,instructions,8,261334,0.0-4.0-4.0-1.0,6851d3836698db9d924a5473,684603404d202cf69e3ddef3,6851dd96e691a3eeab1e17e3,37,1,TRUE,1,TRUE,Player 37,50,"[{""""page_index"""":0,""""viewing_time"""":3291.5}]",3291.69999999926,"","",,"","","","","",,,,,,
,findSquares,9,289201,0.0-4.0-4.0-0.1,6851d3836698db9d924a5473,684603404d202cf69e3ddef3,6851dd96e691a3eeab1e17e3,37,1,TRUE,1,TRUE,Player 37,50,"",,"","",,non-pretend,"[['1', '1', '1', '0', '0', '1'], ['0', '0', '0', '0', '0', '1'], ['0', '0', '0', '0', '0', '0'], ['0', '0', '0', '0', '1', '0'], ['1', '1', '0', '1', '1', '0'], ['0', '0', '0', '0', '0', '0']]","[[0, 1], [0, 5], [4, 0], [4, 4]]","{'i': [0, 0, 1, 1, 0, 1, 2, 1, 0, 4, 5, 3, 3, 2, 4, 4, 3, 5, 5, 3, 1, 4], 'j': [2, 3, 1, 2, 0, 5, 5, 4, 4, 5, 4, 4, 3, 4, 1, 2, 1, 1, 0, 0, 0, 3], 't': [2432.9000000003725, 3664.800000000745, 4781.300000000745, 5374.5, 6005, 7994.5, 9059.400000000373, 9827.200000000186, 10388.400000000373, 11601.300000000745, 12669, 13354.600000000559, 14182.600000000559, 15181.600000000559, 17633.60000000056, 18616.700000000186, 19353.5, 20112.900000000373, 20726.10000000056, 21798.10000000056, 22925.300000000745, 25861.800000000745], 'hit': ['1', '0', '0', '0', '1', '1', '0', '0', '0', '0', '0', '1', '0', '0', '1', '0', '0', '0', '0', '0', '0', '1'], 'b': []}","[['black', 'black', 'black', 'white', 'white', 'black'], ['white', 'white', 'white', 'unknown', 'white', 'black'], ['unknown', 'unknown', 'unknown', 'unknown', 'white', 'white'], ['white', 'white', 'unknown', 'white', 'black', 'unknown'], ['black', 'black', 'white', 'black', 'black', 'white'], ['white', 'white', 'unknown', 'unknown', 'white', 'unknown']]",22,0,10,,10,
,instructions,10,293346,0.0-4.0-4.0-1.1,6851d3836698db9d924a5473,684603404d202cf69e3ddef3,6851dd96e691a3eeab1e17e3,37,1,TRUE,1,TRUE,Player 37,50,"[{""""page_index"""":0,""""viewing_time"""":4144}]",4144.20000000019,"","",,"","","","","",,,,,,
,findSquares,11,310179,0.0-4.0-4.0-0.2,6851d3836698db9d924a5473,684603404d202cf69e3ddef3,6851dd96e691a3eeab1e17e3,37,1,TRUE,1,TRUE,Player 37,50,"",,"","",,non-pretend,"[['0', '0', '0', '0', '0', '0'], ['0', '0', '0', '0', '0', '0'], ['0', '1', '1', '1', '0', '0'], ['0', '0', '1', '0', '0', '1'], ['1', '1', '0', '0', '0', '1'], ['1', '0', '0', '0', '0', '1']]","[[2, 2], [4, 1], [4, 5]]","{'i': [2, 2, 1, 1, 2, 2, 3, 3, 4, 3, 5, 4, 5, 5, 3], 'j': [3, 4, 3, 2, 1, 0, 1, 2, 2, 3, 1, 0, 0, 5, 5], 't': [2056.5999999996275, 2960.2000000001863, 3953.5, 4549.399999999441, 5050.799999999814, 6066.5999999996275, 6715.899999999441, 7263.799999999814, 8331.599999999627, 9047.399999999441, 10044.799999999814, 10643, 12214.899999999441, 13996, 14823.099999999627], 'hit': ['1', '0', '0', '0', '1', '0', '0', '1', '0', '0', '0', '1', '1', '1', '1'], 'b': []}","[['unknown', 'unknown', 'unknown', 'unknown', 'unknown', 'unknown'], ['unknown', 'unknown', 'white', 'white', 'unknown', 'unknown'], ['white', 'black', 'black', 'black', 'white', 'unknown'], ['unknown', 'white', 'black', 'white', 'unknown', 'black'], ['black', 'black', 'white', 'unknown', 'unknown', 'black'], ['black', 'white', 'unknown', 'unknown', 'unknown', 'black']]",15,0,18,,8,
,instructions,12,312611,0.0-4.0-4.0-1.2,6851d3836698db9d924a5473,684603404d202cf69e3ddef3,6851dd96e691a3eeab1e17e3,37,1,TRUE,1,TRUE,Player 37,50,"[{""""page_index"""":0,""""viewing_time"""":2431.2000000001863}]",2431.40000000037,"","",,"","","","","",,,,,,
,findSquares,13,346937,0.0-4.0-4.0-0.3,6851d3836698db9d924a5473,684603404d202cf69e3ddef3,6851dd96e691a3eeab1e17e3,37,1,TRUE,1,TRUE,Player 37,50,"",,"","",,non-pretend,"[['0', '0', '0', '0', '0', '0'], ['0', '1', '0', '0', '1', '1'], ['0', '1', '0', '0', '0', '0'], ['0', '0', '0', '0', '0', '1'], ['1', '1', '1', '0', '1', '1'], ['0', '0', '0', '0', '0', '0']]","[[1, 1], [1, 5], [3, 5], [4, 0]]","{'i': [2, 0, 4, 5, 4, 3, 4, 3, 3, 1, 2, 2, 1, 0, 1, 2, 0, 5, 5, 5, 2, 1, 4, 4], 'j': [5, 5, 5, 5, 4, 4, 1, 1, 0, 0, 1, 2, 2, 1, 4, 4, 4, 4, 1, 0, 0, 3, 3, 2], 't': [1639.7000000001863, 2356.9000000003725, 3056.2999999998137, 3974.4000000003725, 4605.700000000186, 4976.4000000003725, 5935.799999999814, 6652.299999999814, 7348.200000000186, 8139, 8796, 9716.700000000186, 10377, 10884.5, 11726.700000000186, 12824.5, 13710.200000000186, 16676.700000000186, 17659.099999999627, 18221.099999999627, 19751, 22566.799999999814, 23870.900000000373, 32306.799999999814], 'hit': ['0', '0', '1', '0', '1', '0', '1', '0', '0', '0', '1', '0', '0', '0', '1', '0', '0', '0', '0', '0', '0', '0', '0', '1'], 'b': []}","[['unknown', 'white', 'unknown', 'unknown', 'white', 'white'], ['white', 'black', 'white', 'white', 'black', 'black'], ['white', 'black', 'white', 'unknown', 'white', 'white'], ['white', 'white', 'unknown', 'unknown', 'white', 'black'], ['black', 'black', 'black', 'white', 'black', 'black'], ['white', 'white', 'unknown', 'unknown', 'white', 'white']]",24,0,8,,7,
,instructions,14,350508,0.0-4.0-4.0-1.3,6851d3836698db9d924a5473,684603404d202cf69e3ddef3,6851dd96e691a3eeab1e17e3,37,1,TRUE,1,TRUE,Player 37,50,"[{""""page_index"""":0,""""viewing_time"""":3566.2000000001863}]",3566.40000000037,"","",,"","","","","",,,,,,
,instructions,15,352952,0.0-4.0-5.0,6851d3836698db9d924a5473,684603404d202cf69e3ddef3,6851dd96e691a3eeab1e17e3,37,1,TRUE,1,TRUE,Player 37,50,"[{""""page_index"""":0,""""viewing_time"""":2443.4000000003725}]",2443.70000000019,"","",,"","","","","",,,,,,
,instructions,16,395584,0.0-4.0-6.0-0.0,6851d3836698db9d924a5473,684603404d202cf69e3ddef3,6851dd96e691a3eeab1e17e3,37,1,TRUE,1,TRUE,Player 37,50,"[{""""page_index"""":0,""""viewing_time"""":6420.700000000186},{""""page_index"""":1,""""viewing_time"""":9370.700000000186},{""""page_index"""":2,""""viewing_time"""":7749.700000000186},{""""page_index"""":3,""""viewing_time"""":1931.3999999994412},{""""page_index"""":2,""""viewing_time"""":3821.4000000003725},{""""page_index"""":3,""""viewing_time"""":13337.400000000373}]",42631.5,"","",,"","","","","",,,,,,
,survey-multi-choice,17,405034,0.0-4.0-6.0-1.0,6851d3836698db9d924a5473,684603404d202cf69e3ddef3,6851dd96e691a3eeab1e17e3,37,1,TRUE,1,TRUE,Player 37,50,"",9449.20000000019,"{""""Q0"""":""""... <b>repeat</b> my clicks from the first round, in the same order""""}",[0],1,multichoice_reconstruction,"","","","",,,,,,
,survey-html-form,18,413133,0.0-4.0-7.0,6851d3836698db9d924a5473,684603404d202cf69e3ddef3,6851dd96e691a3eeab1e17e3,37,1,TRUE,1,TRUE,Player 37,50,"",8096.5,"{""""white_count"""":""""6""""}","",,white_card_report,"","","","",,,,,,6
,instructions,19,426144,0.0-4.0-8.0,6851d3836698db9d924a5473,684603404d202cf69e3ddef3,6851dd96e691a3eeab1e17e3,37,1,TRUE,1,TRUE,Player 37,50,"[{""""page_index"""":0,""""viewing_time"""":13010.400000000373}]",13010.6000000006,"","",,"","","","","",,,,,,
,findSquares,20,449328,0.0-4.0-9.0,6851d3836698db9d924a5473,684603404d202cf69e3ddef3,6851dd96e691a3eeab1e17e3,37,1,TRUE,1,TRUE,Player 37,50,"",,"","",,memory,"[['0', '0', '0', '0', '0', '0'], ['0', '0', '1', '1', '0', '0'], ['0', '0', '1', '1', '0', '0'], ['0', '1', '0', '0', '1', '0'], ['0', '1', '0', '0', '1', '0'], ['0', '1', '0', '0', '1', '0']]","[[1, 2], [4, 4], [5, 1]]","{'i': [4, 4, 3, 3, 2, 5, 5, 1, 0, 0, 1, 1, 2, 4, 3, 3, 2], 'j': [5, 3, 4, 5, 4, 4, 5, 3, 2, 3, 1, 4, 2, 1, 1, 0, 3], 't': [2593.0999999996275, 4391.700000000186, 5077.0999999996275, 6402.5999999996275, 7606.0999999996275, 8953.899999999441, 10100.700000000186, 11685.5, 12762.399999999441, 13826.5, 14525.399999999441, 15449, 16363.599999999627, 17524.5, 18641, 19639.89999999944, 21179.39999999944], 'hit': ['0', '0', '1', '0', '0', '1', '0', '1', '0', '0', '0', '0', '1', '1', '1', '0', '1'], 'b': []}","[['unknown', 'unknown', 'white', 'white', 'unknown', 'unknown'], ['unknown', 'white', 'black', 'black', 'white', 'unknown'], ['unknown', 'unknown', 'black', 'black', 'white', 'unknown'], ['white', 'black', 'unknown', 'unknown', 'black', 'white'], ['unknown', 'black', 'unknown', 'white', 'black', 'white'], ['unknown', 'black', 'unknown', 'unknown', 'black', 'white']]",17,0,16,,3,
,survey-text,21,471225,0.0-4.0-10.0,6851d3836698db9d924a5473,684603404d202cf69e3ddef3,6851dd96e691a3eeab1e17e3,37,1,TRUE,1,TRUE,Player 37,50,"",21888.6000000006,"{""""worker_comments"""":""""Make it more exciting""""}","",,"","","","","",,,,,,
,instructions,22,480496,0.0-4.0-11.0,6851d3836698db9d924a5473,684603404d202cf69e3ddef3,6851dd96e691a3eeab1e17e3,37,1,TRUE,1,TRUE,Player 37,50,"[{""""page_index"""":0,""""viewing_time"""":9270}]",9270.5,"","",,"","","","","",,,,,,
1,fullscreen,0,4843,0.0-0.0,6851d3836698db9d924a5473,677917aad5d996eeb7a55fe9,6851d70a5d38e2bcf77f0480,25,1,TRUE,1,TRUE,Player 25,53,"",,"","",,"","","","","",,,,,,
,instructions,1,90059,0.0-1.0,6851d3836698db9d924a5473,677917aad5d996eeb7a55fe9,6851d70a5d38e2bcf77f0480,25,1,TRUE,1,TRUE,Player 25,53,"[{""""page_index"""":0,""""viewing_time"""":30309.900000035763},{""""page_index"""":1,""""viewing_time"""":12225.199999988079},{""""page_index"""":2,""""viewing_time"""":33483},{""""page_index"""":3,""""viewing_time"""":9191.199999988079}]",85210.2000000477,"","",,"","","","","",,,,,,
,survey-multi-choice,2,110551,0.0-2.0,6851d3836698db9d924a5473,677917aad5d996eeb7a55fe9,6851d70a5d38e2bcf77f0480,25,1,TRUE,1,TRUE,Player 25,53,"",20487.5,"{""""Q0"""":""""... find all black cards whilst revealing as <b>few white<b> cards as possible""""}",[0],1,multichoice_part1,"","","","",,,,,,
,instructions,3,117683,0.0-4.0-0.0,6851d3836698db9d924a5473,677917aad5d996eeb7a55fe9,6851d70a5d38e2bcf77f0480,25,1,TRUE,1,TRUE,Player 25,53,"[{""""page_index"""":0,""""viewing_time"""":7129.5}]",7130.20000004768,"","",,"","","","","",,,,,,
,findSquares,4,162740,0.0-4.0-1.0,6851d3836698db9d924a5473,677917aad5d996eeb7a55fe9,6851d70a5d38e2bcf77f0480,25,1,TRUE,1,TRUE,Player 25,53,"",,"","",,"","[['0', '0', '1', '0'], ['1', '1', '1', '1'], ['1', '1', '1', '0'], ['0', '0', '0', '0']]","[[2, 2]]","{'i': [1, 0, 3, 1, 2, 0, 3, 1, 2, 2, 0, 3, 1], 'j': [1, 2, 3, 3, 0, 0, 1, 2, 3, 1, 3, 2, 0], 't': [2875.699999988079, 6964.100000023842, 8404.600000023842, 10555.899999976158, 12331.5, 13539.5, 15460.300000011921, 17699.5, 19468.100000023842, 20292.100000023842, 22869.30000001192, 36820.19999998808, 43027.30000001192], 'hit': ['1', '1', '0', '1', '1', '0', '0', '1', '0', '1', '0', '0', '1'], 'b': []}","[['white', 'unknown', 'black', 'white'], ['black', 'black', 'black', 'black'], ['black', 'black', 'black', 'white'], ['unknown', 'white', 'white', 'white']]",13,0,2,,,
,instructions,5,172539,0.0-4.0-2.0,6851d3836698db9d924a5473,677917aad5d996eeb7a55fe9,6851d70a5d38e2bcf77f0480,25,1,TRUE,1,TRUE,Player 25,53,"[{""""page_index"""":0,""""viewing_time"""":9796.199999988079}]",9797.10000002384,"","",,"","","","","",,,,,,
,instructions,6,352186,0.0-4.0-3.0,6851d3836698db9d924a5473,677917aad5d996eeb7a55fe9,6851d70a5d38e2bcf77f0480,25,1,TRUE,1,TRUE,Player 25,53,"[{""""page_index"""":0,""""viewing_time"""":169919.19999998808},{""""page_index"""":1,""""viewing_time"""":9725.800000011921}]",179645.899999976,"","",,"","","","","",,,,,,
,findSquares,7,420427,0.0-4.0-4.0-0.0,6851d3836698db9d924a5473,677917aad5d996eeb7a55fe9,6851d70a5d38e2bcf77f0480,25,1,TRUE,1,TRUE,Player 25,53,"",,"","",,non-pretend,"[['1', '1', '0', '0', '1', '1'], ['0', '0', '0', '0', '0', '0'], ['0', '0', '0', '0', '0', '0'], ['1', '0', '0', '0', '0', '1'], ['1', '1', '0', '0', '1', '1'], ['0', '0', '0', '0', '0', '0']]","[[0, 1], [0, 5], [4, 0], [4, 4]]","{'i': [0, 0, 4, 4, 0, 1, 1, 5, 3, 3, 5, 3], 'j': [2, 0, 1, 5, 4, 1, 5, 2, 2, 5, 5, 0], 't': [6951.5, 8983.200000047684, 11599, 12950.800000011921, 15695.400000035763, 22551.700000047684, 25255.600000023842, 28582.400000035763, 41750.700000047684, 53206.80000001192, 60463.10000002384, 66230.5], 'hit': ['0', '1', '1', '1', '1', '0', '0', '0', '0', '1', '0', '1'], 'b': []}","[['black', 'black', 'white', 'unknown', 'black', 'black'], ['unknown', 'white', 'unknown', 'unknown', 'unknown', 'white'], ['unknown', 'unknown', 'unknown', 'unknown', 'unknown', 'unknown'], ['black', 'unknown', 'white', 'unknown', 'unknown', 'black'], ['black', 'black', 'unknown', 'unknown', 'black', 'black'], ['unknown', 'unknown', 'white', 'unknown', 'unknown', 'white']]",12,0,20,,4,
,instructions,8,507960,0.0-4.0-4.0-1.0,6851d3836698db9d924a5473,677917aad5d996eeb7a55fe9,6851d70a5d38e2bcf77f0480,25,1,TRUE,1,TRUE,Player 25,53,"[{""""page_index"""":0,""""viewing_time"""":87530.19999998808}]",87531.3000000119,"","",,"","","","","",,,,,,
,findSquares,9,561209,0.0-4.0-4.0-0.1,6851d3836698db9d924a5473,677917aad5d996eeb7a55fe9,6851d70a5d38e2bcf77f0480,25,1,TRUE,1,TRUE,Player 25,53,"",,"","",,non-pretend,"[['0', '0', '0', '0', '0', '0'], ['0', '1', '0', '0', '1', '1'], ['0', '1', '0', '0', '0', '0'], ['0', '0', '0', '0', '0', '1'], ['1', '1', '1', '0', '1', '1'], ['0', '0', '0', '0', '0', '0']]","[[1, 1], [1, 5], [3, 5], [4, 0]]","{'i': [2, 4, 0, 2, 1, 3, 4, 3, 1, 1, 4, 3, 3, 0, 2, 2, 0, 5, 5, 4], 'j': [1, 5, 5, 5, 4, 0, 1, 2, 2, 0, 4, 4, 1, 3, 4, 3, 1, 0, 1, 2], 't': [2174.800000011921, 4045.2000000476837, 5280, 6357.300000011921, 7869.400000035763, 9949.300000011921, 11310.800000011921, 15350.900000035763, 16805.600000023842, 17854.100000023842, 23478.30000001192, 27325.400000035763, 31802.900000035763, 34769, 37903.90000003576, 44429, 47261.10000002384, 49672.5, 50309.90000003576, 51231.90000003576], 'hit': ['1', '1', '0', '0', '1', '0', '1', '0', '0', '0', '1', '0', '0', '0', '0', '0', '0', '0', '0', '1'], 'b': []}","[['unknown', 'white', 'unknown', 'white', 'unknown', 'white'], ['white', 'black', 'white', 'unknown', 'black', 'black'], ['unknown', 'black', 'unknown', 'white', 'white', 'white'], ['white', 'white', 'white', 'unknown', 'white', 'black'], ['black', 'black', 'black', 'unknown', 'black', 'black'], ['white', 'white', 'unknown', 'unknown', 'unknown', 'unknown']]",20,0,12,,7,
,instructions,10,563696,0.0-4.0-4.0-1.1,6851d3836698db9d924a5473,677917aad5d996eeb7a55fe9,6851d70a5d38e2bcf77f0480,25,1,TRUE,1,TRUE,Player 25,53,"[{""""page_index"""":0,""""viewing_time"""":2484.300000011921}]",2485.30000001192,"","",,"","","","","",,,,,,
,findSquares,11,619477,0.0-4.0-4.0-0.2,6851d3836698db9d924a5473,677917aad5d996eeb7a55fe9,6851d70a5d38e2bcf77f0480,25,1,TRUE,1,TRUE,Player 25,53,"",,"","",,non-pretend,"[['0', '0', '0', '0', '0', '0'], ['0', '0', '1', '1', '0', '0'], ['0', '0', '1', '0', '0', '0'], ['0', '1', '0', '0', '1', '0'], ['0', '1', '0', '0', '1', '1'], ['0', '1', '0', '0', '1', '0']]","[[1, 2], [4, 4], [5, 1]]","{'i': [2, 3, 5, 5, 5, 4, 3, 2, 0, 3, 2, 3, 5, 1, 1, 0, 0, 4, 4, 4, 3, 3, 5, 1], 'j': [2, 4, 4, 2, 0, 1, 1, 1, 2, 2, 4, 0, 5, 1, 0, 1, 0, 2, 5, 3, 5, 3, 3, 3], 't': [1366.8999999761581, 3014.699999988079, 4982.699999988079, 6855.399999976158, 7607.099999964237, 8342.599999964237, 9190.799999952316, 12135.699999988079, 14359.199999988079, 15096.699999988079, 17438.69999998808, 20895.19999998808, 23551.799999952316, 33345.5, 34079.09999996424, 34982.5, 35793.799999952316, 41271.5, 44302.299999952316, 45374.299999952316, 46591.09999996424, 47942.89999997616, 49710.5, 53759.59999996424], 'hit': ['1', '1', '1', '0', '0', '1', '1', '0', '0', '0', '0', '0', '0', '0', '0', '0', '0', '0', '1', '0', '0', '0', '0', '1'], 'b': []}","[['white', 'white', 'white', 'unknown', 'unknown', 'unknown'], ['white', 'white', 'black', 'black', 'unknown', 'unknown'], ['unknown', 'white', 'black', 'unknown', 'white', 'unknown'], ['white', 'black', 'white', 'white', 'black', 'white'], ['unknown', 'black', 'white', 'white', 'black', 'black'], ['white', 'black', 'white', 'white', 'black', 'white']]",24,0,9,,9,
,instructions,12,621897,0.0-4.0-4.0-1.2,6851d3836698db9d924a5473,677917aad5d996eeb7a55fe9,6851d70a5d38e2bcf77f0480,25,1,TRUE,1,TRUE,Player 25,53,"[{""""page_index"""":0,""""viewing_time"""":2416.100000023842}]",2417.30000001192,"","",,"","","","","",,,,,,
,findSquares,13,668878,0.0-4.0-4.0-0.3,6851d3836698db9d924a5473,677917aad5d996eeb7a55fe9,6851d70a5d38e2bcf77f0480,25,1,TRUE,1,TRUE,Player 25,53,"",,"","",,non-pretend,"[['0', '0', '0', '0', '0', '0'], ['0', '0', '0', '0', '0', '0'], ['0', '1', '1', '1', '0', '0'], ['0', '0', '1', '0', '0', '1'], ['1', '1', '0', '0', '0', '1'], ['1', '0', '0', '0', '0', '1']]","[[2, 2], [4, 1], [4, 5]]","{'i': [4, 4, 2, 2, 2, 2, 2, 5, 3, 5, 5, 3, 1, 1, 3, 3, 3, 5, 4, 1, 3], 'j': [2, 0, 1, 0, 3, 4, 5, 5, 5, 0, 1, 3, 1, 2, 1, 0, 4, 4, 4, 3, 2], 't': [1246.300000011921, 2214.5, 3277.800000011921, 3966, 5229.200000047684, 5902.400000035763, 6710.400000035763, 8038.100000023842, 8917.200000047684, 15550.400000035763, 17925.900000035763, 24161.30000001192, 26565.700000047684, 28750.30000001192, 31654.200000047684, 33805.60000002384, 38637.10000002384, 39686.10000002384, 40254.700000047684, 43109.700000047684, 44966.5], 'hit': ['0', '1', '1', '0', '1', '0', '0', '1', '1', '1', '0', '0', '0', '0', '0', '0', '0', '0', '0', '0', '1'], 'b': []}","[['unknown', 'unknown', 'unknown', 'unknown', 'unknown', 'unknown'], ['unknown', 'white', 'white', 'white', 'unknown', 'unknown'], ['white', 'black', 'black', 'black', 'white', 'white'], ['white', 'white', 'black', 'white', 'white', 'black'], ['black', 'black', 'white', 'unknown', 'white', 'black'], ['black', 'white', 'unknown', 'unknown', 'white', 'black']]",21,0,12,,8,
,instructions,14,670712,0.0-4.0-4.0-1.3,6851d3836698db9d924a5473,677917aad5d996eeb7a55fe9,6851d70a5d38e2bcf77f0480,25,1,TRUE,1,TRUE,Player 25,53,"[{""""page_index"""":0,""""viewing_time"""":1831.6000000238419}]",1832.39999997616,"","",,"","","","","",,,,,,
,instructions,15,677556,0.0-4.0-5.0,6851d3836698db9d924a5473,677917aad5d996eeb7a55fe9,6851d70a5d38e2bcf77f0480,25,1,TRUE,1,TRUE,Player 25,53,"[{""""page_index"""":0,""""viewing_time"""":6842.699999988079}]",6843.5,"","",,"","","","","",,,,,,
,instructions,16,719310,0.0-4.0-6.0-0.0,6851d3836698db9d924a5473,677917aad5d996eeb7a55fe9,6851d70a5d38e2bcf77f0480,25,1,TRUE,1,TRUE,Player 25,53,"[{""""page_index"""":0,""""viewing_time"""":6944.5},{""""page_index"""":1,""""viewing_time"""":20342.900000035763},{""""page_index"""":2,""""viewing_time"""":3561.699999988079},{""""page_index"""":3,""""viewing_time"""":10902}]",41751.6999999881,"","",,"","","","","",,,,,,
,survey-multi-choice,17,728921,0.0-4.0-6.0-1.0,6851d3836698db9d924a5473,677917aad5d996eeb7a55fe9,6851d70a5d38e2bcf77f0480,25,1,TRUE,1,TRUE,Player 25,53,"",9608,"{""""Q0"""":""""... <b>repeat</b> my clicks from the first round, in the same order""""}",[0],1,multichoice_reconstruction,"","","","",,,,,,
,survey-html-form,18,836840,0.0-4.0-7.0,6851d3836698db9d924a5473,677917aad5d996eeb7a55fe9,6851d70a5d38e2bcf77f0480,25,1,TRUE,1,TRUE,Player 25,53,"",107913.099999964,"{""""white_count"""":""""4""""}","",,white_card_report,"","","","",,,,,,4
,instructions,19,867606,0.0-4.0-8.0,6851d3836698db9d924a5473,677917aad5d996eeb7a55fe9,6851d70a5d38e2bcf77f0480,25,1,TRUE,1,TRUE,Player 25,53,"[{""""page_index"""":0,""""viewing_time"""":30763.899999976158}]",30765.3999999762,"","",,"","","","","",,,,,,
,findSquares,20,916926,0.0-4.0-9.0,6851d3836698db9d924a5473,677917aad5d996eeb7a55fe9,6851d70a5d38e2bcf77f0480,25,1,TRUE,1,TRUE,Player 25,53,"",,"","",,memory,"[['1', '1', '0', '0', '1', '1'], ['0', '0', '0', '0', '0', '0'], ['0', '0', '0', '0', '0', '0'], ['1', '0', '0', '0', '0', '1'], ['1', '1', '0', '0', '1', '1'], ['0', '0', '0', '0', '0', '0']]","[[0, 1], [0, 5], [4, 0], [4, 4]]","{'i': [4, 4, 1, 0, 0, 3, 3, 1, 5, 0, 3, 3], 'j': [1, 5, 5, 0, 4, 1, 4, 0, 1, 2, 0, 5], 't': [1673.199999988079, 3086.100000023842, 4510.400000035763, 6813.5, 7670.400000035763, 10709.600000023842, 14837.900000035763, 21757.600000023842, 27502, 40069.30000001192, 44925.30000001192, 47309.69999998808], 'hit': ['1', '1', '0', '1', '1', '0', '0', '0', '0', '0', '1', '1'], 'b': []}","[['black', 'black', 'white', 'unknown', 'black', 'black'], ['white', 'unknown', 'unknown', 'unknown', 'unknown', 'white'], ['unknown', 'unknown', 'unknown', 'unknown', 'unknown', 'unknown'], ['black', 'white', 'unknown', 'unknown', 'white', 'black'], ['black', 'black', 'unknown', 'unknown', 'black', 'black'], ['unknown', 'white', 'unknown', 'unknown', 'unknown', 'unknown']]",12,0,20,,4,
,survey-text,21,924383,0.0-4.0-10.0,6851d3836698db9d924a5473,677917aad5d996eeb7a55fe9,6851d70a5d38e2bcf77f0480,25,1,TRUE,1,TRUE,Player 25,53,"",7446.80000001192,"{""""worker_comments"""":""""""""}","",,"","","","","",,,,,,
,instructions,22,943278,0.0-4.0-11.0,6851d3836698db9d924a5473,677917aad5d996eeb7a55fe9,6851d70a5d38e2bcf77f0480,25,1,TRUE,1,TRUE,Player 25,53,"[{""""page_index"""":0,""""viewing_time"""":18891.399999976158}]",18892.5999999642,"","",,"","","","","",,,,,,
1,fullscreen,0,10418,0.0-0.0,6851d3836698db9d924a5473,68487b88f3201a496a4daee6,6851dd48a71fe2b4c075a9e0,38,1,TRUE,1,TRUE,Player 38,42,"",,"","",,"","","","","",,,,,,
,instructions,1,136314,0.0-1.0,6851d3836698db9d924a5473,68487b88f3201a496a4daee6,6851dd48a71fe2b4c075a9e0,38,1,TRUE,1,TRUE,Player 38,42,"[{""""page_index"""":0,""""viewing_time"""":35562.10000000149},{""""page_index"""":1,""""viewing_time"""":26928.70000000298},{""""page_index"""":2,""""viewing_time"""":25159.29999999702},{""""page_index"""":3,""""viewing_time"""":14287.39999999851},{""""page_index"""":4,""""viewing_time"""":23952.70000000298}]",125891,"","",,"","","","","",,,,,,
,survey-multi-choice,2,164219,0.0-2.0,6851d3836698db9d924a5473,68487b88f3201a496a4daee6,6851dd48a71fe2b4c075a9e0,38,1,TRUE,1,TRUE,Player 38,42,"",27901.5,"{""""Q0"""":""""... find all black cards whilst revealing as <b>few white<b> cards as possible""""}",[0],1,multichoice_part1,"","","","",,,,,,
,instructions,3,175082,0.0-4.0-0.0,6851d3836698db9d924a5473,68487b88f3201a496a4daee6,6851dd48a71fe2b4c075a9e0,38,1,TRUE,1,TRUE,Player 38,42,"[{""""page_index"""":0,""""viewing_time"""":10859.89999999851}]",10860.200000003,"","",,"","","","","",,,,,,
,findSquares,4,225090,0.0-4.0-1.0,6851d3836698db9d924a5473,68487b88f3201a496a4daee6,6851dd48a71fe2b4c075a9e0,38,1,TRUE,1,TRUE,Player 38,42,"",,"","",,"","[['0', '0', '1', '0'], ['1', '1', '1', '1'], ['1', '1', '1', '0'], ['0', '0', '0', '0']]","[[2, 2]]","{'i': [1, 0, 0, 0, 2, 2, 3, 1, 0, 3, 2, 3, 1, 3, 1], 'j': [2, 2, 1, 3, 1, 0, 0, 0, 0, 2, 3, 1, 1, 3, 3], 't': [5201.60000000149, 7403.19999999553, 10497.5, 12817.29999999702, 16697.10000000149, 18633.10000000149, 24200.69999999553, 26856.39999999851, 28438.39999999851, 32137.39999999851, 33697.5, 35552, 37200.5, 46072.10000000149, 47992], 'hit': ['1', '1', '0', '0', '1', '1', '0', '1', '0', '0', '0', '0', '1', '0', '1'], 'b': []}","[['white', 'white', 'black', 'white'], ['black', 'black', 'black', 'black'], ['black', 'black', 'black', 'white'], ['white', 'white', 'white', 'white']]",15,0,0,,,
,instructions,5,239123,0.0-4.0-2.0,6851d3836698db9d924a5473,68487b88f3201a496a4daee6,6851dd48a71fe2b4c075a9e0,38,1,TRUE,1,TRUE,Player 38,42,"[{""""page_index"""":0,""""viewing_time"""":14029.5}]",14030.1000000015,"","",,"","","","","",,,,,,
,instructions,6,252379,0.0-4.0-3.0,6851d3836698db9d924a5473,68487b88f3201a496a4daee6,6851dd48a71fe2b4c075a9e0,38,1,TRUE,1,TRUE,Player 38,42,"[{""""page_index"""":0,""""viewing_time"""":54.100000001490116},{""""page_index"""":1,""""viewing_time"""":13200.10000000149}]",13254.6000000015,"","",,"","","","","",,,,,,
,findSquares,7,309374,0.0-4.0-4.0-0.0,6851d3836698db9d924a5473,68487b88f3201a496a4daee6,6851dd48a71fe2b4c075a9e0,38,1,TRUE,1,TRUE,Player 38,42,"",,"","",,non-pretend,"[['1', '1', '0', '0', '1', '1'], ['0', '0', '0', '0', '0', '0'], ['0', '0', '0', '0', '0', '0'], ['1', '0', '0', '0', '0', '1'], ['1', '1', '0', '0', '1', '1'], ['0', '0', '0', '0', '0', '0']]","[[0, 1], [0, 5], [4, 0], [4, 4]]","{'i': [4, 3, 1, 0, 0, 1, 0, 4, 4, 1, 5, 5, 5, 3, 0, 1, 4, 5, 2, 2, 2, 2, 3], 'j': [3, 4, 1, 2, 0, 5, 4, 5, 1, 0, 0, 1, 5, 5, 3, 4, 2, 4, 5, 3, 1, 0, 0], 't': [5202.79999999702, 8682.59999999404, 11962.5, 14586.39999999851, 15651.19999999553, 18762.29999999702, 19930.69999999553, 23986.59999999404, 28427.29999999702, 34898.69999999553, 38196.5, 39051.69999999553, 40642.89999999851, 42162.39999999851, 44154.59999999404, 45051, 47210.59999999404, 49346.19999999553, 50698.19999999553, 51834.29999999702, 52938.19999999553, 53787.39999999851, 54972.79999999702], 'hit': ['0', '0', '0', '0', '1', '0', '1', '1', '1', '0', '0', '0', '0', '1', '0', '0', '0', '0', '0', '0', '0', '0', '1'], 'b': []}","[['black', 'black', 'white', 'white', 'black', 'black'], ['white', 'white', 'unknown', 'unknown', 'white', 'white'], ['white', 'white', 'unknown', 'white', 'unknown', 'white'], ['black', 'unknown', 'unknown', 'unknown', 'white', 'black'], ['black', 'black', 'white', 'white', 'black', 'black'], ['white', 'white', 'unknown', 'unknown', 'white', 'white']]",23,0,9,,4,
,instructions,8,317564,0.0-4.0-4.0-1.0,6851d3836698db9d924a5473,68487b88f3201a496a4daee6,6851dd48a71fe2b4c075a9e0,38,1,TRUE,1,TRUE,Player 38,42,"[{""""page_index"""":0,""""viewing_time"""":8188.10000000149}]",8188.5,"","",,"","","","","",,,,,,
,findSquares,9,351477,0.0-4.0-4.0-0.1,6851d3836698db9d924a5473,68487b88f3201a496a4daee6,6851dd48a71fe2b4c075a9e0,38,1,TRUE,1,TRUE,Player 38,42,"",,"","",,non-pretend,"[['0', '0', '0', '0', '0', '0'], ['0', '1', '0', '0', '1', '1'], ['0', '1', '0', '0', '0', '0'], ['0', '0', '0', '0', '0', '1'], ['1', '1', '1', '0', '1', '1'], ['0', '0', '0', '0', '0', '0']]","[[1, 1], [1, 5], [3, 5], [4, 0]]","{'i': [0, 1, 2, 3, 2, 1, 2, 5, 4, 3, 4, 1, 1, 2, 2, 0, 0, 4, 4], 'j': [1, 0, 1, 1, 2, 2, 0, 0, 1, 0, 5, 4, 3, 4, 5, 4, 5, 2, 4], 't': [3852, 5418.89999999851, 6402.79999999702, 8307, 9636, 10387.89999999851, 11643, 14963.39999999851, 15691.10000000149, 17172.10000000149, 19027, 21796.60000000149, 23387.39999999851, 24636.10000000149, 25458.89999999851, 26483.19999999553, 27195.5, 29907.19999999553, 31891], 'hit': ['0', '0', '1', '0', '0', '0', '0', '0', '1', '0', '1', '1', '0', '0', '0', '0', '0', '1', '1'], 'b': []}","[['unknown', 'white', 'unknown', 'unknown', 'white', 'white'], ['white', 'black', 'white', 'white', 'black', 'black'], ['white', 'black', 'white', 'unknown', 'white', 'white'], ['white', 'white', 'unknown', 'unknown', 'unknown', 'black'], ['black', 'black', 'black', 'unknown', 'black', 'black'], ['white', 'unknown', 'unknown', 'unknown', 'unknown', 'unknown']]",19,0,13,,7,
,instructions,10,357285,0.0-4.0-4.0-1.1,6851d3836698db9d924a5473,68487b88f3201a496a4daee6,6851dd48a71fe2b4c075a9e0,38,1,TRUE,1,TRUE,Player 38,42,"[{""""page_index"""":0,""""viewing_time"""":5805.39999999851}]",5805.89999999851,"","",,"","","","","",,,,,,
,findSquares,11,415293,0.0-4.0-4.0-0.2,6851d3836698db9d924a5473,68487b88f3201a496a4daee6,6851dd48a71fe2b4c075a9e0,38,1,TRUE,1,TRUE,Player 38,42,"",,"","",,non-pretend,"[['0', '0', '0', '0', '0', '0'], ['0', '0', '1', '1', '0', '0'], ['0', '0', '1', '0', '0', '0'], ['0', '1', '0', '0', '1', '0'], ['0', '1', '0', '0', '1', '1'], ['0', '1', '0', '0', '1', '0']]","[[1, 2], [4, 4], [5, 1]]","{'i': [3, 2, 3, 4, 0, 1, 0, 4, 3, 5, 4, 4, 1, 2, 5, 3, 3, 2, 2, 1, 0, 0, 3, 5, 4, 5], 'j': [4, 4, 3, 5, 2, 3, 3, 1, 1, 2, 2, 0, 1, 2, 5, 5, 2, 1, 3, 4, 1, 4, 0, 0, 3, 4], 't': [2931.3000000044703, 5618.60000000149, 6778.20000000298, 7971.20000000298, 10954.20000000298, 11971.20000000298, 20803.30000000447, 24722.20000000298, 27154.89999999851, 32226.80000000447, 33266.80000000447, 34750.30000000447, 37210.30000000447, 38834.5, 41738.30000000447, 42898.10000000149, 45130.89999999851, 46098.30000000447, 47386.39999999851, 48186.30000000447, 49506.39999999851, 50210.39999999851, 52634.80000000447, 53379.39999999851, 55058.20000000298, 55986.80000000447], 'hit': ['1', '0', '0', '1', '0', '1', '0', '1', '1', '0', '0', '0', '0', '1', '0', '0', '0', '0', '0', '0', '0', '0', '0', '0', '0', '1'], 'b': []}","[['unknown', 'white', 'white', 'white', 'white', 'unknown'], ['unknown', 'white', 'black', 'black', 'white', 'unknown'], ['unknown', 'white', 'black', 'white', 'white', 'unknown'], ['white', 'black', 'white', 'white', 'black', 'white'], ['white', 'black', 'white', 'white', 'black', 'black'], ['white', 'black', 'white', 'unknown', 'black', 'white']]",26,0,7,,9,
,instructions,12,427710,0.0-4.0-4.0-1.2,6851d3836698db9d924a5473,68487b88f3201a496a4daee6,6851dd48a71fe2b4c075a9e0,38,1,TRUE,1,TRUE,Player 38,42,"[{""""page_index"""":0,""""viewing_time"""":12414.20000000298}]",12414.799999997,"","",,"","","","","",,,,,,
,findSquares,13,463944,0.0-4.0-4.0-0.3,6851d3836698db9d924a5473,68487b88f3201a496a4daee6,6851dd48a71fe2b4c075a9e0,38,1,TRUE,1,TRUE,Player 38,42,"",,"","",,non-pretend,"[['0', '0', '0', '0', '0', '0'], ['0', '0', '0', '0', '0', '0'], ['0', '1', '1', '1', '0', '0'], ['0', '0', '1', '0', '0', '1'], ['1', '1', '0', '0', '0', '1'], ['1', '0', '0', '0', '0', '1']]","[[2, 2], [4, 1], [4, 5]]","{'i': [2, 2, 3, 4, 4, 4, 3, 3, 2, 5, 5, 3, 3, 2, 1, 1, 1, 2, 3, 5], 'j': [3, 4, 2, 2, 0, 4, 5, 4, 5, 5, 4, 3, 1, 1, 1, 2, 3, 0, 0, 0], 't': [2702.10000000149, 6075.70000000298, 7682.70000000298, 9858.90000000596, 11314.60000000149, 13877.40000000596, 15195, 17747.60000000149, 18772.70000000298, 19818.70000000298, 20851.10000000149, 22395.90000000596, 24178.60000000149, 25162.90000000596, 29322.70000000298, 30042.60000000149, 30918, 32271.20000000298, 33282.60000000149, 34218.60000000149], 'hit': ['1', '0', '1', '0', '1', '0', '1', '0', '0', '1', '0', '0', '0', '1', '0', '0', '0', '0', '0', '1'], 'b': []}","[['unknown', 'unknown', 'unknown', 'unknown', 'unknown', 'unknown'], ['unknown', 'white', 'white', 'white', 'unknown', 'unknown'], ['white', 'black', 'black', 'black', 'white', 'white'], ['white', 'white', 'black', 'white', 'white', 'black'], ['black', 'black', 'white', 'unknown', 'white', 'black'], ['black', 'unknown', 'unknown', 'unknown', 'white', 'black']]",20,0,13,,8,
,instructions,14,466863,0.0-4.0-4.0-1.3,6851d3836698db9d924a5473,68487b88f3201a496a4daee6,6851dd48a71fe2b4c075a9e0,38,1,TRUE,1,TRUE,Player 38,42,"[{""""page_index"""":0,""""viewing_time"""":2915.2999999970198}]",2916,"","",,"","","","","",,,,,,
,instructions,15,472558,0.0-4.0-5.0,6851d3836698db9d924a5473,68487b88f3201a496a4daee6,6851dd48a71fe2b4c075a9e0,38,1,TRUE,1,TRUE,Player 38,42,"[{""""page_index"""":0,""""viewing_time"""":5694.29999999702}]",5694.70000000298,"","",,"","","","","",,,,,,
,instructions,16,566223,0.0-4.0-6.0-0.0,6851d3836698db9d924a5473,68487b88f3201a496a4daee6,6851dd48a71fe2b4c075a9e0,38,1,TRUE,1,TRUE,Player 38,42,"[{""""page_index"""":0,""""viewing_time"""":23},{""""page_index"""":1,""""viewing_time"""":26823.60000000149},{""""page_index"""":2,""""viewing_time"""":7672.10000000149},{""""page_index"""":3,""""viewing_time"""":59143.69999999553}]",93662.799999997,"","",,"","","","","",,,,,,
,survey-multi-choice,17,582432,0.0-4.0-6.0-1.0,6851d3836698db9d924a5473,68487b88f3201a496a4daee6,6851dd48a71fe2b4c075a9e0,38,1,TRUE,1,TRUE,Player 38,42,"",16207.3999999985,"{""""Q0"""":""""... <b>repeat</b> my clicks from the first round, in the same order""""}",[0],1,multichoice_reconstruction,"","","","",,,,,,
,survey-html-form,18,612937,0.0-4.0-7.0,6851d3836698db9d924a5473,68487b88f3201a496a4daee6,6851dd48a71fe2b4c075a9e0,38,1,TRUE,1,TRUE,Player 38,42,"",30501,"{""""white_count"""":""""13""""}","",,white_card_report,"","","","",,,,,,13
,instructions,19,631592,0.0-4.0-8.0,6851d3836698db9d924a5473,68487b88f3201a496a4daee6,6851dd48a71fe2b4c075a9e0,38,1,TRUE,1,TRUE,Player 38,42,"[{""""page_index"""":0,""""viewing_time"""":18654}]",18654.3000000045,"","",,"","","","","",,,,,,
,findSquares,20,668010,0.0-4.0-9.0,6851d3836698db9d924a5473,68487b88f3201a496a4daee6,6851dd48a71fe2b4c075a9e0,38,1,TRUE,1,TRUE,Player 38,42,"",,"","",,memory,"[['1', '1', '0', '0', '1', '1'], ['0', '0', '0', '0', '0', '0'], ['0', '0', '0', '0', '0', '0'], ['1', '0', '0', '0', '0', '1'], ['1', '1', '0', '0', '1', '1'], ['0', '0', '0', '0', '0', '0']]","[[0, 1], [0, 5], [4, 0], [4, 4]]","{'i': [1, 0, 0, 4, 5, 4, 4, 0, 3, 5, 3, 2, 1, 1, 0, 1, 3], 'j': [1, 2, 0, 1, 4, 3, 5, 4, 1, 5, 5, 5, 5, 4, 3, 0, 0], 't': [3315.60000000149, 4683.29999999702, 5587.10000000149, 8140.10000000149, 11932, 12700.89999999851, 13403.60000000149, 17036.19999999553, 25141.19999999553, 26851.60000000149, 27803.60000000149, 28564.89999999851, 29500.39999999851, 30475.19999999553, 31454.89999999851, 32860, 34403.60000000149], 'hit': ['0', '0', '1', '1', '0', '0', '1', '1', '0', '0', '1', '0', '0', '0', '0', '0', '1'], 'b': []}","[['black', 'black', 'white', 'white', 'black', 'black'], ['white', 'white', 'unknown', 'unknown', 'white', 'white'], ['unknown', 'unknown', 'unknown', 'unknown', 'unknown', 'white'], ['black', 'white', 'unknown', 'unknown', 'unknown', 'black'], ['black', 'black', 'unknown', 'white', 'black', 'black'], ['unknown', 'unknown', 'unknown', 'unknown', 'white', 'white']]",17,0,15,,4,
,survey-text,21,711147,0.0-4.0-10.0,6851d3836698db9d924a5473,68487b88f3201a496a4daee6,6851dd48a71fe2b4c075a9e0,38,1,TRUE,1,TRUE,Player 38,42,"",43129.6000000015,"{""""worker_comments"""":""""the experiment is amazing""""}","",,"","","","","",,,,,,
,instructions,22,732242,0.0-4.0-11.0,6851d3836698db9d924a5473,68487b88f3201a496a4daee6,6851dd48a71fe2b4c075a9e0,38,1,TRUE,1,TRUE,Player 38,42,"[{""""page_index"""":0,""""viewing_time"""":21092.69999999553}]",21093.1000000015,"","",,"","","","","",,,,,,
1,fullscreen,0,9660,0.0-0.0,6851d3836698db9d924a5473,683e04b661e7df97cf45e1ea,6851d6e32631e6743e193ca5,26,1,TRUE,1,TRUE,Player 26,51,"",,"","",,"","","","","",,,,,,
,instructions,1,115164,0.0-1.0,6851d3836698db9d924a5473,683e04b661e7df97cf45e1ea,6851d6e32631e6743e193ca5,26,1,TRUE,1,TRUE,Player 26,51,"[{""""page_index"""":0,""""viewing_time"""":45999.200000047684},{""""page_index"""":1,""""viewing_time"""":19661.600000023842},{""""page_index"""":2,""""viewing_time"""":29440.399999976158},{""""page_index"""":3,""""viewing_time"""":10396.899999976158}]",105499.600000024,"","",,"","","","","",,,,,,
,survey-multi-choice,2,173161,0.0-2.0,6851d3836698db9d924a5473,683e04b661e7df97cf45e1ea,6851d6e32631e6743e193ca5,26,1,TRUE,1,TRUE,Player 26,51,"",57992.7000000477,"{""""Q0"""":""""... find all black cards whilst revealing as <b>few white<b> cards as possible""""}",[0],1,multichoice_part1,"","","","",,,,,,
,instructions,3,183393,0.0-4.0-0.0,6851d3836698db9d924a5473,683e04b661e7df97cf45e1ea,6851d6e32631e6743e193ca5,26,1,TRUE,1,TRUE,Player 26,51,"[{""""page_index"""":0,""""viewing_time"""":10229}]",10230.1999999285,"","",,"","","","","",,,,,,
,findSquares,4,216850,0.0-4.0-1.0,6851d3836698db9d924a5473,683e04b661e7df97cf45e1ea,6851d6e32631e6743e193ca5,26,1,TRUE,1,TRUE,Player 26,51,"",,"","",,"","[['0', '0', '1', '0'], ['1', '1', '1', '1'], ['1', '1', '1', '0'], ['0', '0', '0', '0']]","[[2, 2]]","{'i': [1, 1, 1, 2, 2, 2, 3, 0, 0, 0, 0, 3, 3, 1], 'j': [0, 1, 2, 0, 1, 3, 2, 2, 1, 3, 0, 0, 1, 3], 't': [9626, 11180.5, 12710.600000023842, 17032.600000023842, 19525, 20674.100000023842, 23050, 24769.699999928474, 25577.399999976158, 27164.399999976158, 28572.5, 29723.100000023842, 30443.899999976158, 31433.699999928474], 'hit': ['1', '1', '1', '1', '1', '0', '0', '1', '0', '0', '0', '0', '0', '1'], 'b': []}","[['white', 'white', 'black', 'white'], ['black', 'black', 'black', 'black'], ['black', 'black', 'black', 'white'], ['white', 'white', 'white', 'unknown']]",14,0,1,,,
,instructions,5,226876,0.0-4.0-2.0,6851d3836698db9d924a5473,683e04b661e7df97cf45e1ea,6851d6e32631e6743e193ca5,26,1,TRUE,1,TRUE,Player 26,51,"[{""""page_index"""":0,""""viewing_time"""":10023}]",10023.8000000715,"","",,"","","","","",,,,,,
,instructions,6,323130,0.0-4.0-3.0,6851d3836698db9d924a5473,683e04b661e7df97cf45e1ea,6851d6e32631e6743e193ca5,26,1,TRUE,1,TRUE,Player 26,51,"[{""""page_index"""":0,""""viewing_time"""":87405.39999997616},{""""page_index"""":1,""""viewing_time"""":8846.600000023842}]",96252.7999999523,"","",,"","","","","",,,,,,
,findSquares,7,367289,0.0-4.0-4.0-0.0,6851d3836698db9d924a5473,683e04b661e7df97cf45e1ea,6851d6e32631e6743e193ca5,26,1,TRUE,1,TRUE,Player 26,51,"",,"","",,non-pretend,"[['1', '1', '0', '0', '1', '1'], ['0', '0', '0', '0', '0', '0'], ['0', '0', '0', '0', '0', '0'], ['1', '0', '0', '0', '0', '1'], ['1', '1', '0', '0', '1', '1'], ['0', '0', '0', '0', '0', '0']]","[[0, 1], [0, 5], [4, 0], [4, 4]]","{'i': [4, 0, 0, 1, 1, 0, 3, 4, 4, 5, 3, 3, 1, 1, 0, 2, 2, 5, 5, 4, 1, 5, 3], 'j': [1, 2, 0, 0, 1, 4, 4, 3, 5, 1, 1, 0, 4, 5, 3, 0, 1, 4, 5, 2, 2, 2, 5], 't': [3934.399999976158, 5288.199999928474, 7140.199999928474, 7907.399999976158, 9228.100000023842, 11753.5, 13828.100000023842, 15237.100000023842, 16163.199999928474, 18021.100000023842, 19140.899999976158, 20017.799999952316, 22551.699999928474, 24740.699999928474, 27154.199999928474, 28826.199999928474, 29607.100000023842, 31493, 34012.199999928474, 36801, 38498.299999952316, 40339.60000002384, 42135], 'hit': ['1', '0', '1', '0', '0', '1', '0', '0', '1', '0', '0', '1', '0', '0', '0', '0', '0', '0', '0', '0', '0', '0', '1'], 'b': []}","[['black', 'black', 'white', 'white', 'black', 'black'], ['white', 'white', 'white', 'unknown', 'white', 'white'], ['white', 'white', 'unknown', 'unknown', 'unknown', 'unknown'], ['black', 'white', 'unknown', 'unknown', 'white', 'black'], ['black', 'black', 'white', 'white', 'black', 'black'], ['unknown', 'white', 'white', 'unknown', 'white', 'white']]",23,0,9,,4,
,instructions,8,377294,0.0-4.0-4.0-1.0,6851d3836698db9d924a5473,683e04b661e7df97cf45e1ea,6851d6e32631e6743e193ca5,26,1,TRUE,1,TRUE,Player 26,51,"[{""""page_index"""":0,""""viewing_time"""":10002.200000047684}]",10003.2000000477,"","",,"","","","","",,,,,,
,findSquares,9,417606,0.0-4.0-4.0-0.1,6851d3836698db9d924a5473,683e04b661e7df97cf45e1ea,6851d6e32631e6743e193ca5,26,1,TRUE,1,TRUE,Player 26,51,"",,"","",,non-pretend,"[['0', '0', '0', '0', '0', '0'], ['0', '0', '0', '0', '0', '0'], ['0', '1', '1', '1', '0', '0'], ['0', '0', '1', '0', '0', '1'], ['1', '1', '0', '0', '0', '1'], ['1', '0', '0', '0', '0', '1']]","[[2, 2], [4, 1], [4, 5]]","{'i': [1, 2, 3, 4, 5, 4, 5, 3, 5, 1, 3, 3, 1, 2, 2, 2, 1, 3], 'j': [2, 3, 3, 0, 0, 4, 5, 2, 2, 4, 1, 4, 1, 1, 0, 4, 3, 5], 't': [3762.7000000476837, 5458.100000023842, 7530.799999952316, 9565.200000047684, 11783.799999952316, 14035, 14973, 19105.5, 23059.5, 24765, 26115.100000023842, 27824.299999952316, 30939.399999976158, 32049.5, 34654.39999997616, 35938.200000047684, 37142.10000002384, 38296.10000002384], 'hit': ['0', '1', '0', '1', '1', '0', '1', '1', '0', '0', '0', '0', '0', '1', '0', '0', '0', '1'], 'b': []}","[['unknown', 'unknown', 'unknown', 'unknown', 'unknown', 'unknown'], ['unknown', 'white', 'white', 'white', 'white', 'unknown'], ['white', 'black', 'black', 'black', 'white', 'unknown'], ['unknown', 'white', 'black', 'white', 'white', 'black'], ['black', 'black', 'unknown', 'unknown', 'white', 'black'], ['black', 'unknown', 'white', 'unknown', 'unknown', 'black']]",18,0,15,,8,
,instructions,10,427115,0.0-4.0-4.0-1.1,6851d3836698db9d924a5473,683e04b661e7df97cf45e1ea,6851d6e32631e6743e193ca5,26,1,TRUE,1,TRUE,Player 26,51,"[{""""page_index"""":0,""""viewing_time"""":9506.299999952316}]",9507.29999995232,"","",,"","","","","",,,,,,
,findSquares,11,455397,0.0-4.0-4.0-0.2,6851d3836698db9d924a5473,683e04b661e7df97cf45e1ea,6851d6e32631e6743e193ca5,26,1,TRUE,1,TRUE,Player 26,51,"",,"","",,non-pretend,"[['0', '0', '0', '0', '0', '0'], ['0', '1', '0', '0', '1', '1'], ['0', '1', '0', '0', '0', '0'], ['0', '0', '0', '0', '0', '1'], ['1', '1', '1', '0', '1', '1'], ['0', '0', '0', '0', '0', '0']]","[[1, 1], [1, 5], [3, 5], [4, 0]]","{'i': [3, 4, 5, 5, 4, 0, 1, 1, 1, 1, 2, 2, 3, 4, 4], 'j': [0, 1, 1, 0, 2, 1, 2, 3, 4, 0, 1, 2, 1, 5, 4], 't': [4117.200000047684, 5928.700000047684, 8143.900000095367, 8968.300000071526, 9911.900000095367, 12948.900000095367, 13866.900000095367, 16377.5, 17186.300000071526, 18551.600000023842, 19553.100000023842, 21286.5, 22208.100000023842, 24110, 26259.5], 'hit': ['0', '1', '0', '0', '1', '0', '0', '0', '1', '0', '1', '0', '0', '1', '1'], 'b': []}","[['unknown', 'white', 'unknown', 'unknown', 'unknown', 'unknown'], ['white', 'black', 'white', 'white', 'black', 'black'], ['unknown', 'black', 'white', 'unknown', 'unknown', 'unknown'], ['white', 'white', 'unknown', 'unknown', 'unknown', 'black'], ['black', 'black', 'black', 'unknown', 'black', 'black'], ['white', 'white', 'unknown', 'unknown', 'unknown', 'unknown']]",15,0,17,,7,
,instructions,12,460217,0.0-4.0-4.0-1.2,6851d3836698db9d924a5473,683e04b661e7df97cf45e1ea,6851d6e32631e6743e193ca5,26,1,TRUE,1,TRUE,Player 26,51,"[{""""page_index"""":0,""""viewing_time"""":4818.299999952316}]",4819.29999995232,"","",,"","","","","",,,,,,
,findSquares,13,504967,0.0-4.0-4.0-0.3,6851d3836698db9d924a5473,683e04b661e7df97cf45e1ea,6851d6e32631e6743e193ca5,26,1,TRUE,1,TRUE,Player 26,51,"",,"","",,non-pretend,"[['0', '0', '0', '0', '0', '0'], ['0', '0', '1', '1', '0', '0'], ['0', '0', '1', '0', '0', '0'], ['0', '1', '0', '0', '1', '0'], ['0', '1', '0', '0', '1', '1'], ['0', '1', '0', '0', '1', '0']]","[[1, 2], [4, 4], [5, 1]]","{'i': [0, 4, 4, 4, 3, 4, 4, 3, 1, 1, 2, 2, 1, 2, 2, 3, 5, 3, 0, 0, 3, 5, 5], 'j': [2, 1, 0, 2, 1, 3, 5, 4, 3, 4, 3, 2, 1, 4, 1, 2, 2, 3, 3, 1, 5, 5, 4], 't': [2880.7999999523163, 5010.399999976158, 7991.399999976158, 8926.399999976158, 9739, 12295.799999952316, 13292, 14916.5, 18545.399999976158, 21881.5, 22787.299999952316, 23521.299999952316, 27910.699999928474, 30689.299999952316, 32316.599999904633, 33131.39999997616, 35809.09999990463, 37276, 38845, 40029.199999928474, 41101.199999928474, 42067.799999952316, 42736.59999990463], 'hit': ['0', '1', '0', '0', '1', '0', '1', '1', '1', '0', '0', '1', '0', '0', '0', '0', '0', '0', '0', '0', '0', '0', '1'], 'b': []}","[['unknown', 'white', 'white', 'white', 'unknown', 'unknown'], ['unknown', 'white', 'black', 'black', 'white', 'unknown'], ['unknown', 'white', 'black', 'white', 'white', 'unknown'], ['unknown', 'black', 'white', 'white', 'black', 'white'], ['white', 'black', 'white', 'white', 'black', 'black'], ['unknown', 'black', 'white', 'unknown', 'black', 'white']]",23,0,10,,9,
,instructions,14,511199,0.0-4.0-4.0-1.3,6851d3836698db9d924a5473,683e04b661e7df97cf45e1ea,6851d6e32631e6743e193ca5,26,1,TRUE,1,TRUE,Player 26,51,"[{""""page_index"""":0,""""viewing_time"""":6229.300000071526}]",6230.20000004768,"","",,"","","","","",,,,,,
,instructions,15,518649,0.0-4.0-5.0,6851d3836698db9d924a5473,683e04b661e7df97cf45e1ea,6851d6e32631e6743e193ca5,26,1,TRUE,1,TRUE,Player 26,51,"[{""""page_index"""":0,""""viewing_time"""":7447.799999952316}]",7448.69999992848,"","",,"","","","","",,,,,,
,instructions,16,594764,0.0-4.0-6.0-0.0,6851d3836698db9d924a5473,683e04b661e7df97cf45e1ea,6851d6e32631e6743e193ca5,26,1,TRUE,1,TRUE,Player 26,51,"[{""""page_index"""":0,""""viewing_time"""":17098.100000023842},{""""page_index"""":1,""""viewing_time"""":21658.899999976158},{""""page_index"""":2,""""viewing_time"""":5808},{""""page_index"""":3,""""viewing_time"""":31547.899999976158}]",76113.8999999762,"","",,"","","","","",,,,,,
,survey-multi-choice,17,608393,0.0-4.0-6.0-1.0,6851d3836698db9d924a5473,683e04b661e7df97cf45e1ea,6851d6e32631e6743e193ca5,26,1,TRUE,1,TRUE,Player 26,51,"",13623.8999999762,"{""""Q0"""":""""... <b>repeat</b> my clicks from the first round, in the same order""""}",[0],1,multichoice_reconstruction,"","","","",,,,,,
,survey-html-form,18,660019,0.0-4.0-7.0,6851d3836698db9d924a5473,683e04b661e7df97cf45e1ea,6851d6e32631e6743e193ca5,26,1,TRUE,1,TRUE,Player 26,51,"",51621.2999999523,"{""""white_count"""":""""9""""}","",,white_card_report,"","","","",,,,,,9
,instructions,19,705195,0.0-4.0-8.0,6851d3836698db9d924a5473,683e04b661e7df97cf45e1ea,6851d6e32631e6743e193ca5,26,1,TRUE,1,TRUE,Player 26,51,"[{""""page_index"""":0,""""viewing_time"""":45173.09999990463}]",45174,"","",,"","","","","",,,,,,
,findSquares,20,722704,0.0-4.0-9.0,6851d3836698db9d924a5473,683e04b661e7df97cf45e1ea,6851d6e32631e6743e193ca5,26,1,TRUE,1,TRUE,Player 26,51,"",,"","",,memory,"[['1', '1', '0', '0', '1', '1'], ['0', '0', '0', '0', '0', '0'], ['0', '0', '0', '0', '0', '0'], ['1', '0', '0', '0', '0', '1'], ['1', '1', '0', '0', '1', '1'], ['0', '0', '0', '0', '0', '0']]","[[0, 1], [0, 5], [4, 0], [4, 4]]","{'i': [0, 0, 3, 4, 3, 4, 3], 'j': [0, 4, 5, 5, 1, 1, 0], 't': [5189.399999976158, 7598, 8782.699999928474, 9592.599999904633, 11038.099999904633, 13245.399999976158, 15488], 'hit': ['1', '1', '1', '1', '0', '1', '1'], 'b': []}","[['black', 'black', 'unknown', 'unknown', 'black', 'black'], ['unknown', 'unknown', 'unknown', 'unknown', 'unknown', 'unknown'], ['unknown', 'unknown', 'unknown', 'unknown', 'unknown', 'unknown'], ['black', 'white', 'unknown', 'unknown', 'unknown', 'black'], ['black', 'black', 'unknown', 'unknown', 'black', 'black'], ['unknown', 'unknown', 'unknown', 'unknown', 'unknown', 'unknown']]",7,0,25,,4,
,survey-text,21,765986,0.0-4.0-10.0,6851d3836698db9d924a5473,683e04b661e7df97cf45e1ea,6851d6e32631e6743e193ca5,26,1,TRUE,1,TRUE,Player 26,51,"",43273.9000000954,"{""""worker_comments"""":""""I liked the experiment""""}","",,"","","","","",,,,,,
,instructions,22,810538,0.0-4.0-11.0,6851d3836698db9d924a5473,683e04b661e7df97cf45e1ea,6851d6e32631e6743e193ca5,26,1,TRUE,1,TRUE,Player 26,51,"[{""""page_index"""":0,""""viewing_time"""":44549.300000071526}]",44550.3000000715,"","",,"","","","","",,,,,,
1,fullscreen,0,386259,0.0-0.0,6851d3836698db9d924a5473,631610af8e747093cd90e00d,6851d75b8f67e4acdbf61c73,27,1,TRUE,1,TRUE,Player 27,63,"",,"","",,"","","","","",,,,,,
,instructions,1,617639,0.0-1.0,6851d3836698db9d924a5473,631610af8e747093cd90e00d,6851d75b8f67e4acdbf61c73,27,1,TRUE,1,TRUE,Player 27,63,"[{""""page_index"""":0,""""viewing_time"""":207865.39999985695},{""""page_index"""":1,""""viewing_time"""":8257.100000143051},{""""page_index"""":2,""""viewing_time"""":742},{""""page_index"""":1,""""viewing_time"""":1228.7999999523163},{""""page_index"""":2,""""viewing_time"""":10102.299999952316},{""""page_index"""":3,""""viewing_time"""":3124}]",231322.799999952,"","",,"","","","","",,,,,,
,survey-multi-choice,2,624792,0.0-2.0,6851d3836698db9d924a5473,631610af8e747093cd90e00d,6851d75b8f67e4acdbf61c73,27,1,TRUE,1,TRUE,Player 27,63,"",7074.69999980927,"{""""Q0"""":""""... find all black cards whilst revealing as <b>few white<b> cards as possible""""}",[0],1,multichoice_part1,"","","","",,,,,,
,instructions,3,626438,0.0-4.0-0.0,6851d3836698db9d924a5473,631610af8e747093cd90e00d,6851d75b8f67e4acdbf61c73,27,1,TRUE,1,TRUE,Player 27,63,"[{""""page_index"""":0,""""viewing_time"""":1636.2999999523163}]",1637.20000004768,"","",,"","","","","",,,,,,
,findSquares,4,639019,0.0-4.0-1.0,6851d3836698db9d924a5473,631610af8e747093cd90e00d,6851d75b8f67e4acdbf61c73,27,1,TRUE,1,TRUE,Player 27,63,"",,"","",,"","[['0', '0', '1', '0'], ['1', '1', '1', '1'], ['1', '1', '1', '0'], ['0', '0', '0', '0']]","[[2, 2]]","{'i': [2, 3, 3, 3, 3, 2, 2, 1, 1, 0, 0, 0, 1, 0, 1], 'j': [3, 3, 2, 1, 0, 0, 1, 0, 1, 0, 1, 2, 2, 3, 3], 't': [4064.600000143051, 5543.5, 6186, 6579.299999952316, 6929.5, 7184.5, 7395, 8034.799999952316, 8300.299999952316, 8547.400000095367, 8764.799999952316, 9448.900000095367, 9472.100000143051, 10189.299999952316, 10421.5], 'hit': ['0', '0', '0', '0', '0', '1', '1', '1', '1', '0', '0', '1', '1', '0', '1'], 'b': []}","[['white', 'white', 'black', 'white'], ['black', 'black', 'black', 'black'], ['black', 'black', 'black', 'white'], ['white', 'white', 'white', 'white']]",15,0,0,,,
,instructions,5,642265,0.0-4.0-2.0,6851d3836698db9d924a5473,631610af8e747093cd90e00d,6851d75b8f67e4acdbf61c73,27,1,TRUE,1,TRUE,Player 27,63,"[{""""page_index"""":0,""""viewing_time"""":3242.800000190735}]",3243.60000014305,"","",,"","","","","",,,,,,
,instructions,6,658532,0.0-4.0-3.0,6851d3836698db9d924a5473,631610af8e747093cd90e00d,6851d75b8f67e4acdbf61c73,27,1,TRUE,1,TRUE,Player 27,63,"[{""""page_index"""":0,""""viewing_time"""":14757.099999904633},{""""page_index"""":1,""""viewing_time"""":1508.6000001430511}]",16266,"","",,"","","","","",,,,,,
,findSquares,7,680377,0.0-4.0-4.0-0.0,6851d3836698db9d924a5473,631610af8e747093cd90e00d,6851d75b8f67e4acdbf61c73,27,1,TRUE,1,TRUE,Player 27,63,"",,"","",,non-pretend,"[['0', '0', '0', '0', '0', '0'], ['0', '0', '0', '0', '0', '0'], ['0', '0', '1', '1', '0', '0'], ['0', '0', '1', '1', '0', '0'], ['1', '1', '0', '0', '1', '1'], ['1', '0', '0', '0', '0', '1']]","[[2, 2], [4, 1], [4, 5]]","{'i': [4, 3, 3, 3, 5, 4, 4, 3, 5, 5, 2, 5], 'j': [2, 1, 2, 3, 1, 0, 4, 4, 4, 5, 3, 0], 't': [4633.299999952316, 5505.5, 7341.5, 7869.299999952316, 8569.700000047684, 10379, 13255.5, 15546.799999952316, 16407.400000095367, 17074.400000095367, 18766.200000047684, 19834], 'hit': ['0', '0', '1', '1', '0', '1', '1', '0', '0', '1', '1', '1'], 'b': []}","[['unknown', 'unknown', 'unknown', 'unknown', 'unknown', 'unknown'], ['unknown', 'unknown', 'unknown', 'unknown', 'unknown', 'unknown'], ['unknown', 'unknown', 'black', 'black', 'unknown', 'unknown'], ['unknown', 'white', 'black', 'black', 'white', 'unknown'], ['black', 'black', 'white', 'unknown', 'black', 'black'], ['black', 'white', 'unknown', 'unknown', 'white', 'black']]",12,0,21,,2,
,instructions,8,682148,0.0-4.0-4.0-1.0,6851d3836698db9d924a5473,631610af8e747093cd90e00d,6851d75b8f67e4acdbf61c73,27,1,TRUE,1,TRUE,Player 27,63,"[{""""page_index"""":0,""""viewing_time"""":1768.2999999523163}]",1768.70000004768,"","",,"","","","","",,,,,,
,findSquares,9,711332,0.0-4.0-4.0-0.1,6851d3836698db9d924a5473,631610af8e747093cd90e00d,6851d75b8f67e4acdbf61c73,27,1,TRUE,1,TRUE,Player 27,63,"",,"","",,non-pretend,"[['0', '0', '0', '0', '0', '0'], ['0', '1', '0', '0', '1', '1'], ['0', '1', '0', '0', '0', '0'], ['0', '0', '0', '0', '0', '1'], ['1', '1', '1', '0', '1', '1'], ['0', '0', '0', '0', '0', '0']]","[[1, 1], [1, 5], [3, 5], [4, 0]]","{'i': [2, 2, 3, 4, 4, 1, 0, 0, 1, 2, 2, 4, 3, 3, 1, 1, 2, 0, 5, 5, 4], 'j': [5, 4, 4, 5, 4, 4, 4, 5, 3, 1, 0, 1, 1, 0, 0, 2, 2, 1, 1, 0, 2], 't': [3222.4000000953674, 4613, 5625.700000047684, 6300.800000190735, 7091.400000095367, 8052.200000047684, 8860.200000047684, 9547.200000047684, 10863.100000143051, 15383.100000143051, 15951.5, 17490.800000190735, 18325.900000095367, 19690.300000190735, 21208.60000014305, 21875.700000047684, 22391.900000095367, 23498.300000190735, 25657.900000095367, 26312.5, 27144.60000014305], 'hit': ['0', '0', '0', '1', '1', '1', '0', '0', '0', '1', '0', '1', '0', '0', '0', '0', '0', '0', '0', '0', '1'], 'b': []}","[['unknown', 'white', 'unknown', 'unknown', 'white', 'white'], ['white', 'black', 'white', 'white', 'black', 'black'], ['white', 'black', 'white', 'unknown', 'white', 'white'], ['white', 'white', 'unknown', 'unknown', 'white', 'black'], ['black', 'black', 'black', 'unknown', 'black', 'black'], ['white', 'white', 'unknown', 'unknown', 'unknown', 'unknown']]",21,0,11,,7,
,instructions,10,712866,0.0-4.0-4.0-1.1,6851d3836698db9d924a5473,631610af8e747093cd90e00d,6851d75b8f67e4acdbf61c73,27,1,TRUE,1,TRUE,Player 27,63,"[{""""page_index"""":0,""""viewing_time"""":1532.4000000953674}]",1532.80000019074,"","",,"","","","","",,,,,,
,findSquares,11,742404,0.0-4.0-4.0-0.2,6851d3836698db9d924a5473,631610af8e747093cd90e00d,6851d75b8f67e4acdbf61c73,27,1,TRUE,1,TRUE,Player 27,63,"",,"","",,non-pretend,"[['0', '0', '0', '0', '0', '0'], ['0', '0', '1', '1', '0', '0'], ['0', '0', '1', '0', '0', '0'], ['0', '1', '0', '0', '1', '0'], ['0', '1', '0', '0', '1', '1'], ['0', '1', '0', '0', '1', '0']]","[[1, 2], [4, 4], [5, 1]]","{'i': [4, 4, 5, 2, 2, 2, 1, 1, 4, 5, 4, 4, 5, 0, 0, 3, 3, 3, 3], 'j': [1, 3, 4, 2, 3, 1, 3, 1, 2, 0, 0, 5, 5, 3, 2, 1, 0, 2, 4], 't': [1322.9000000953674, 2240.2000000476837, 3045.5, 4438.700000047684, 5023.5, 6027, 7582.299999952316, 9975.799999952316, 11049.600000143051, 11852.700000047684, 12780.799999952316, 14267.900000095367, 15418.299999952316, 19300, 20037, 21188.900000095367, 25597.5, 26249.700000047684, 27532.60000014305], 'hit': ['1', '0', '1', '1', '0', '0', '1', '0', '0', '0', '0', '1', '0', '0', '0', '1', '0', '0', '1'], 'b': []}","[['unknown', 'unknown', 'white', 'white', 'unknown', 'unknown'], ['unknown', 'white', 'black', 'black', 'unknown', 'unknown'], ['unknown', 'white', 'black', 'white', 'unknown', 'unknown'], ['white', 'black', 'white', 'unknown', 'black', 'unknown'], ['white', 'black', 'white', 'white', 'black', 'black'], ['white', 'black', 'unknown', 'unknown', 'black', 'white']]",19,0,14,,9,
,instructions,12,743857,0.0-4.0-4.0-1.2,6851d3836698db9d924a5473,631610af8e747093cd90e00d,6851d75b8f67e4acdbf61c73,27,1,TRUE,1,TRUE,Player 27,63,"[{""""page_index"""":0,""""viewing_time"""":1452.0999999046326}]",1452.5,"","",,"","","","","",,,,,,
,findSquares,13,761983,0.0-4.0-4.0-0.3,6851d3836698db9d924a5473,631610af8e747093cd90e00d,6851d75b8f67e4acdbf61c73,27,1,TRUE,1,TRUE,Player 27,63,"",,"","",,non-pretend,"[['1', '1', '1', '0', '0', '1'], ['0', '0', '0', '0', '0', '1'], ['0', '0', '0', '0', '0', '0'], ['0', '0', '0', '0', '1', '0'], ['1', '1', '0', '1', '1', '0'], ['0', '0', '0', '0', '0', '0']]","[[0, 1], [0, 5], [4, 0], [4, 4]]","{'i': [1, 1, 1, 0, 1, 0, 0, 2, 5, 4, 3, 3, 3, 4, 4], 'j': [5, 4, 1, 0, 0, 2, 4, 5, 4, 5, 4, 3, 5, 3, 1], 't': [1302, 1891, 2943, 3934.699999809265, 4390.099999904633, 5754.699999809265, 7155, 8672.099999904633, 9692.299999952316, 10475.899999856949, 11485.699999809265, 12447.299999952316, 13181.599999904633, 14214.299999952316, 16115], 'hit': ['1', '0', '0', '1', '0', '1', '0', '0', '0', '0', '1', '0', '0', '1', '1'], 'b': []}","[['black', 'black', 'black', 'unknown', 'white', 'black'], ['white', 'white', 'unknown', 'unknown', 'white', 'black'], ['unknown', 'unknown', 'unknown', 'unknown', 'unknown', 'white'], ['unknown', 'unknown', 'unknown', 'white', 'black', 'white'], ['black', 'black', 'unknown', 'black', 'black', 'white'], ['unknown', 'unknown', 'unknown', 'unknown', 'white', 'unknown']]",15,0,17,,10,
,instructions,14,762975,0.0-4.0-4.0-1.3,6851d3836698db9d924a5473,631610af8e747093cd90e00d,6851d75b8f67e4acdbf61c73,27,1,TRUE,1,TRUE,Player 27,63,"[{""""page_index"""":0,""""viewing_time"""":990.7000000476837}]",991,"","",,"","","","","",,,,,,
,instructions,15,764961,0.0-4.0-5.0,6851d3836698db9d924a5473,631610af8e747093cd90e00d,6851d75b8f67e4acdbf61c73,27,1,TRUE,1,TRUE,Player 27,63,"[{""""page_index"""":0,""""viewing_time"""":1984.3000001907349}]",1984.80000019074,"","",,"","","","","",,,,,,
,instructions,16,783493,0.0-4.0-6.0-0.0,6851d3836698db9d924a5473,631610af8e747093cd90e00d,6851d75b8f67e4acdbf61c73,27,1,TRUE,1,TRUE,Player 27,63,"[{""""page_index"""":0,""""viewing_time"""":3931.2999999523163},{""""page_index"""":1,""""viewing_time"""":5064.200000047684},{""""page_index"""":2,""""viewing_time"""":1546.2999999523163},{""""page_index"""":3,""""viewing_time"""":7987.400000095367}]",18529.7999999523,"","",,"","","","","",,,,,,
,survey-multi-choice,17,786120,0.0-4.0-6.0-1.0,6851d3836698db9d924a5473,631610af8e747093cd90e00d,6851d75b8f67e4acdbf61c73,27,1,TRUE,1,TRUE,Player 27,63,"",2621.29999995232,"{""""Q0"""":""""... <b>repeat</b> my clicks from the first round, in the same order""""}",[0],1,multichoice_reconstruction,"","","","",,,,,,
,survey-html-form,18,796420,0.0-4.0-7.0,6851d3836698db9d924a5473,631610af8e747093cd90e00d,6851d75b8f67e4acdbf61c73,27,1,TRUE,1,TRUE,Player 27,63,"",9732.69999980926,"{""""white_count"""":""""8""""}","",,white_card_report,"","","","",,,,,,8
,instructions,19,802835,0.0-4.0-8.0,6851d3836698db9d924a5473,631610af8e747093cd90e00d,6851d75b8f67e4acdbf61c73,27,1,TRUE,1,TRUE,Player 27,63,"[{""""page_index"""":0,""""viewing_time"""":6413.799999952316}]",6414,"","",,"","","","","",,,,,,
,findSquares,20,814853,0.0-4.0-9.0,6851d3836698db9d924a5473,631610af8e747093cd90e00d,6851d75b8f67e4acdbf61c73,27,1,TRUE,1,TRUE,Player 27,63,"",,"","",,memory,"[['0', '0', '0', '0', '0', '0'], ['0', '0', '0', '0', '0', '0'], ['0', '0', '1', '1', '0', '0'], ['0', '0', '1', '1', '0', '0'], ['1', '1', '0', '0', '1', '1'], ['1', '0', '0', '0', '0', '1']]","[[2, 2], [4, 1], [4, 5]]","{'i': [3, 4, 3, 2, 5, 5, 3, 4, 5, 5], 'j': [2, 0, 3, 3, 1, 0, 4, 4, 4, 5], 't': [1444.7999999523163, 3349.7000000476837, 4748.100000143051, 6017.200000047684, 6756, 7425.700000047684, 8477.600000143051, 8969.799999952316, 9366.799999952316, 10003.100000143051], 'hit': ['1', '1', '1', '1', '0', '1', '0', '1', '0', '1'], 'b': []}","[['unknown', 'unknown', 'unknown', 'unknown', 'unknown', 'unknown'], ['unknown', 'unknown', 'unknown', 'unknown', 'unknown', 'unknown'], ['unknown', 'unknown', 'black', 'black', 'unknown', 'unknown'], ['unknown', 'unknown', 'black', 'black', 'white', 'unknown'], ['black', 'black', 'unknown', 'unknown', 'black', 'black'], ['black', 'white', 'unknown', 'unknown', 'white', 'black']]",10,0,23,,2,
,survey-text,21,816971,0.0-4.0-10.0,6851d3836698db9d924a5473,631610af8e747093cd90e00d,6851d75b8f67e4acdbf61c73,27,1,TRUE,1,TRUE,Player 27,63,"",2093,"{""""worker_comments"""":""""""""}","",,"","","","","",,,,,,
,instructions,22,826427,0.0-4.0-11.0,6851d3836698db9d924a5473,631610af8e747093cd90e00d,6851d75b8f67e4acdbf61c73,27,1,TRUE,1,TRUE,Player 27,63,"[{""""page_index"""":0,""""viewing_time"""":9455.599999904633}]",9456,"","",,"","","","","",,,,,,
1,fullscreen,0,4643,0.0-0.0,6851d3836698db9d924a5473,66ad7a9bda89473531598c06,6851dd440ef94e3c3e41d4e8,39,1,TRUE,1,TRUE,Player 39,63,"",,"","",,"","","","","",,,,,,
,instructions,1,211048,0.0-1.0,6851d3836698db9d924a5473,66ad7a9bda89473531598c06,6851dd440ef94e3c3e41d4e8,39,1,TRUE,1,TRUE,Player 39,63,"[{""""page_index"""":0,""""viewing_time"""":39107.59999999404},{""""page_index"""":1,""""viewing_time"""":15173.90000000596},{""""page_index"""":2,""""viewing_time"""":132330},{""""page_index"""":3,""""viewing_time"""":7611.200000017881},{""""page_index"""":4,""""viewing_time"""":12170.799999982119}]",206394.800000012,"","",,"","","","","",,,,,,
,survey-multi-choice,2,224336,0.0-2.0,6851d3836698db9d924a5473,66ad7a9bda89473531598c06,6851dd440ef94e3c3e41d4e8,39,1,TRUE,1,TRUE,Player 39,63,"",13277.8999999762,"{""""Q0"""":""""... find all black cards whilst revealing as <b>few white<b> cards as possible""""}",[0],1,multichoice_part1,"","","","",,,,,,
,instructions,3,229419,0.0-4.0-0.0,6851d3836698db9d924a5473,66ad7a9bda89473531598c06,6851dd440ef94e3c3e41d4e8,39,1,TRUE,1,TRUE,Player 39,63,"[{""""page_index"""":0,""""viewing_time"""":5078.799999982119}]",5080.69999998808,"","",,"","","","","",,,,,,
,findSquares,4,260701,0.0-4.0-1.0,6851d3836698db9d924a5473,66ad7a9bda89473531598c06,6851dd440ef94e3c3e41d4e8,39,1,TRUE,1,TRUE,Player 39,63,"",,"","",,"","[['0', '0', '1', '0'], ['1', '1', '1', '1'], ['1', '1', '1', '0'], ['0', '0', '0', '0']]","[[2, 2]]","{'i': [2, 0, 0, 1, 2, 2, 1, 0, 3, 0, 3, 1, 3, 1], 'j': [3, 2, 1, 2, 1, 0, 0, 0, 2, 3, 1, 1, 0, 3], 't': [1752.800000011921, 4280.5, 5807.4000000059605, 7600.600000023842, 10240.100000023842, 12560.40000000596, 14388.90000000596, 15758.40000000596, 18480.70000001788, 21197.70000001788, 23286.5, 25235.30000001192, 27560.5, 29248], 'hit': ['0', '1', '0', '1', '1', '1', '1', '0', '0', '0', '0', '1', '0', '1'], 'b': []}","[['white', 'white', 'black', 'white'], ['black', 'black', 'black', 'black'], ['black', 'black', 'black', 'white'], ['white', 'white', 'white', 'unknown']]",14,0,1,,,
,instructions,5,294451,0.0-4.0-2.0,6851d3836698db9d924a5473,66ad7a9bda89473531598c06,6851dd440ef94e3c3e41d4e8,39,1,TRUE,1,TRUE,Player 39,63,"[{""""page_index"""":0,""""viewing_time"""":33746.5}]",33749,"","",,"","","","","",,,,,,
,instructions,6,419442,0.0-4.0-3.0,6851d3836698db9d924a5473,66ad7a9bda89473531598c06,6851dd440ef94e3c3e41d4e8,39,1,TRUE,1,TRUE,Player 39,63,"[{""""page_index"""":0,""""viewing_time"""":119142.90000000596},{""""page_index"""":1,""""viewing_time"""":5839}]",124983.900000006,"","",,"","","","","",,,,,,
,findSquares,7,459372,0.0-4.0-4.0-0.0,6851d3836698db9d924a5473,66ad7a9bda89473531598c06,6851dd440ef94e3c3e41d4e8,39,1,TRUE,1,TRUE,Player 39,63,"",,"","",,non-pretend,"[['0', '0', '0', '0', '0', '0'], ['1', '1', '0', '0', '1', '1'], ['0', '0', '0', '0', '0', '0'], ['1', '0', '0', '0', '0', '1'], ['1', '1', '0', '0', '1', '1'], ['0', '0', '0', '0', '0', '0']]","[[1, 1], [1, 5], [3, 5], [4, 0]]","{'i': [3, 2, 2, 1, 0, 4, 5, 4, 3, 3, 4, 4, 4, 1, 2, 0, 1], 'j': [4, 5, 1, 2, 1, 1, 1, 2, 0, 1, 5, 4, 3, 0, 0, 0, 4], 't': [1936.7999999821186, 3853.2999999821186, 6152.399999976158, 8168.299999982119, 10401.799999982119, 12451.699999988079, 14214.799999982119, 15603.699999988079, 17649.69999998808, 18932.899999976158, 21932, 23837.399999976158, 26499.5, 31434.59999999404, 33361.39999997616, 35613.19999998808, 37908], 'hit': ['0', '0', '0', '0', '0', '1', '0', '0', '1', '0', '1', '1', '0', '1', '0', '0', '1'], 'b': []}","[['white', 'white', 'unknown', 'unknown', 'unknown', 'unknown'], ['black', 'black', 'white', 'unknown', 'black', 'black'], ['white', 'white', 'unknown', 'unknown', 'unknown', 'white'], ['black', 'white', 'unknown', 'unknown', 'white', 'black'], ['black', 'black', 'white', 'white', 'black', 'black'], ['unknown', 'white', 'unknown', 'unknown', 'unknown', 'unknown']]",17,0,15,,1,
,instructions,8,463752,0.0-4.0-4.0-1.0,6851d3836698db9d924a5473,66ad7a9bda89473531598c06,6851dd440ef94e3c3e41d4e8,39,1,TRUE,1,TRUE,Player 39,63,"[{""""page_index"""":0,""""viewing_time"""":4374.200000017881}]",4377.59999999404,"","",,"","","","","",,,,,,
,findSquares,9,499026,0.0-4.0-4.0-0.1,6851d3836698db9d924a5473,66ad7a9bda89473531598c06,6851dd440ef94e3c3e41d4e8,39,1,TRUE,1,TRUE,Player 39,63,"",,"","",,non-pretend,"[['0', '0', '0', '0', '0', '0'], ['0', '0', '1', '1', '0', '0'], ['0', '0', '1', '0', '0', '0'], ['0', '1', '0', '0', '1', '0'], ['0', '1', '0', '0', '1', '1'], ['0', '1', '0', '0', '1', '0']]","[[1, 2], [4, 4], [5, 1]]","{'i': [2, 1, 0, 4, 5, 4, 3, 4, 3, 1, 2, 5], 'j': [2, 1, 2, 5, 2, 1, 1, 3, 4, 3, 3, 4], 't': [2011.4000000059605, 4146.799999982119, 5526.699999988079, 7392.799999982119, 9573.09999999404, 11722.799999982119, 15925.699999988079, 19588.29999998212, 22014.79999998212, 25751.59999999404, 30975.09999999404, 33255.09999999404], 'hit': ['1', '0', '0', '1', '0', '1', '1', '0', '1', '1', '0', '1'], 'b': []}","[['unknown', 'unknown', 'white', 'unknown', 'unknown', 'unknown'], ['unknown', 'white', 'black', 'black', 'unknown', 'unknown'], ['unknown', 'unknown', 'black', 'white', 'unknown', 'unknown'], ['unknown', 'black', 'unknown', 'unknown', 'black', 'unknown'], ['unknown', 'black', 'unknown', 'white', 'black', 'black'], ['unknown', 'black', 'white', 'unknown', 'black', 'unknown']]",12,0,21,,9,
,instructions,10,501886,0.0-4.0-4.0-1.1,6851d3836698db9d924a5473,66ad7a9bda89473531598c06,6851dd440ef94e3c3e41d4e8,39,1,TRUE,1,TRUE,Player 39,63,"[{""""page_index"""":0,""""viewing_time"""":2856.5999999940395}]",2858.59999999404,"","",,"","","","","",,,,,,
,findSquares,11,559707,0.0-4.0-4.0-0.2,6851d3836698db9d924a5473,66ad7a9bda89473531598c06,6851dd440ef94e3c3e41d4e8,39,1,TRUE,1,TRUE,Player 39,63,"",,"","",,non-pretend,"[['0', '0', '0', '0', '0', '0'], ['0', '0', '0', '0', '0', '0'], ['0', '1', '1', '1', '0', '0'], ['0', '0', '1', '0', '0', '1'], ['1', '1', '0', '0', '0', '1'], ['1', '0', '0', '0', '0', '1']]","[[2, 2], [4, 1], [4, 5]]","{'i': [1, 2, 1, 3, 3, 5, 4, 4, 3, 2, 2, 5, 5, 5, 1, 2, 2, 4, 3, 3], 'j': [2, 1, 1, 1, 5, 1, 2, 0, 0, 3, 5, 5, 0, 4, 3, 0, 4, 4, 4, 2], 't': [1951.199999988079, 3518.5, 5737.0999999940395, 7732.4000000059605, 9767, 13465.59999999404, 15480.90000000596, 18114.69999998808, 22831.69999998808, 24730.40000000596, 27441, 29655.80000001192, 33342.80000001192, 38439.69999998808, 40624.09999999404, 42258.80000001192, 44534, 47041.30000001192, 50278.30000001192, 55796], 'hit': ['0', '1', '0', '0', '1', '0', '0', '1', '0', '1', '0', '1', '1', '0', '0', '0', '0', '0', '0', '1'], 'b': []}","[['unknown', 'unknown', 'unknown', 'unknown', 'unknown', 'unknown'], ['unknown', 'white', 'white', 'white', 'unknown', 'unknown'], ['white', 'black', 'black', 'black', 'white', 'white'], ['white', 'white', 'black', 'unknown', 'white', 'black'], ['black', 'black', 'white', 'unknown', 'white', 'black'], ['black', 'white', 'unknown', 'unknown', 'white', 'black']]",20,0,13,,8,
,instructions,12,563479,0.0-4.0-4.0-1.2,6851d3836698db9d924a5473,66ad7a9bda89473531598c06,6851dd440ef94e3c3e41d4e8,39,1,TRUE,1,TRUE,Player 39,63,"[{""""page_index"""":0,""""viewing_time"""":3768.5}]",3770.5,"","",,"","","","","",,,,,,
,findSquares,13,613840,0.0-4.0-4.0-0.3,6851d3836698db9d924a5473,66ad7a9bda89473531598c06,6851dd440ef94e3c3e41d4e8,39,1,TRUE,1,TRUE,Player 39,63,"",,"","",,non-pretend,"[['1', '1', '1', '0', '0', '1'], ['0', '0', '0', '0', '0', '1'], ['0', '0', '0', '0', '0', '0'], ['0', '0', '0', '0', '1', '0'], ['1', '1', '0', '1', '1', '0'], ['0', '0', '0', '0', '0', '0']]","[[0, 1], [0, 5], [4, 0], [4, 4]]","{'i': [1, 4, 1, 2, 4, 5, 3, 0, 1, 0, 4, 5, 3, 3, 5, 2, 1, 4], 'j': [1, 5, 5, 5, 1, 4, 4, 0, 0, 2, 2, 1, 3, 5, 0, 4, 2, 3], 't': [2727.9000000059605, 5298, 7372.9000000059605, 9958.40000000596, 11984.800000011921, 14949.200000017881, 17663.70000001788, 21370.600000023842, 24452.5, 26367, 30450.90000000596, 32668.100000023842, 36738.30000001192, 39315.10000002384, 41660.70000001788, 43539, 45642.20000001788, 48337.20000001788], 'hit': ['0', '0', '1', '0', '1', '0', '1', '1', '0', '1', '0', '0', '0', '0', '0', '0', '0', '1'], 'b': []}","[['black', 'black', 'black', 'unknown', 'unknown', 'black'], ['white', 'white', 'white', 'unknown', 'unknown', 'black'], ['unknown', 'unknown', 'unknown', 'unknown', 'white', 'white'], ['unknown', 'unknown', 'unknown', 'white', 'black', 'white'], ['black', 'black', 'white', 'black', 'black', 'white'], ['white', 'white', 'unknown', 'unknown', 'white', 'unknown']]",18,0,14,,10,
,instructions,14,616615,0.0-4.0-4.0-1.3,6851d3836698db9d924a5473,66ad7a9bda89473531598c06,6851dd440ef94e3c3e41d4e8,39,1,TRUE,1,TRUE,Player 39,63,"[{""""page_index"""":0,""""viewing_time"""":2771.5}]",2773.70000001788,"","",,"","","","","",,,,,,
,instructions,15,621054,0.0-4.0-5.0,6851d3836698db9d924a5473,66ad7a9bda89473531598c06,6851dd440ef94e3c3e41d4e8,39,1,TRUE,1,TRUE,Player 39,63,"[{""""page_index"""":0,""""viewing_time"""":4431.300000011921}]",4436,"","",,"","","","","",,,,,,
,instructions,16,658720,0.0-4.0-6.0-0.0,6851d3836698db9d924a5473,66ad7a9bda89473531598c06,6851dd440ef94e3c3e41d4e8,39,1,TRUE,1,TRUE,Player 39,63,"[{""""page_index"""":0,""""viewing_time"""":9504.5},{""""page_index"""":1,""""viewing_time"""":13441.5},{""""page_index"""":2,""""viewing_time"""":5697.5},{""""page_index"""":3,""""viewing_time"""":9018.5}]",37663.8999999762,"","",,"","","","","",,,,,,
,survey-multi-choice,17,668694,0.0-4.0-6.0-1.0,6851d3836698db9d924a5473,66ad7a9bda89473531598c06,6851dd440ef94e3c3e41d4e8,39,1,TRUE,1,TRUE,Player 39,63,"",9966.5,"{""""Q0"""":""""... <b>repeat</b> my clicks from the first round, in the same order""""}",[0],1,multichoice_reconstruction,"","","","",,,,,,
,survey-html-form,18,681972,0.0-4.0-7.0,6851d3836698db9d924a5473,66ad7a9bda89473531598c06,6851dd440ef94e3c3e41d4e8,39,1,TRUE,1,TRUE,Player 39,63,"",13271.3000000119,"{""""white_count"""":""""13""""}","",,white_card_report,"","","","",,,,,,13
,instructions,19,726216,0.0-4.0-8.0,6851d3836698db9d924a5473,66ad7a9bda89473531598c06,6851dd440ef94e3c3e41d4e8,39,1,TRUE,1,TRUE,Player 39,63,"[{""""page_index"""":0,""""viewing_time"""":44238.30000001192}]",44239.900000006,"","",,"","","","","",,,,,,
,findSquares,20,751411,0.0-4.0-9.0,6851d3836698db9d924a5473,66ad7a9bda89473531598c06,6851dd440ef94e3c3e41d4e8,39,1,TRUE,1,TRUE,Player 39,63,"",,"","",,memory,"[['0', '0', '0', '0', '0', '0'], ['1', '1', '0', '0', '1', '1'], ['0', '0', '0', '0', '0', '0'], ['1', '0', '0', '0', '0', '1'], ['1', '1', '0', '0', '1', '1'], ['0', '0', '0', '0', '0', '0']]","[[1, 1], [1, 5], [3, 5], [4, 0]]","{'i': [1, 1, 3, 4, 4, 4], 'j': [0, 4, 0, 1, 5, 4], 't': [4242.300000011921, 6612.199999988079, 16139.09999999404, 18188.09999999404, 21187, 23169.90000000596], 'hit': ['1', '1', '1', '1', '1', '1'], 'b': []}","[['unknown', 'unknown', 'unknown', 'unknown', 'unknown', 'unknown'], ['black', 'black', 'unknown', 'unknown', 'black', 'black'], ['unknown', 'unknown', 'unknown', 'unknown', 'unknown', 'unknown'], ['black', 'unknown', 'unknown', 'unknown', 'unknown', 'black'], ['black', 'black', 'unknown', 'unknown', 'black', 'black'], ['unknown', 'unknown', 'unknown', 'unknown', 'unknown', 'unknown']]",6,0,26,,1,
,survey-text,21,779689,0.0-4.0-10.0,6851d3836698db9d924a5473,66ad7a9bda89473531598c06,6851dd440ef94e3c3e41d4e8,39,1,TRUE,1,TRUE,Player 39,63,"",28270.099999994,"{""""worker_comments"""":""""Nothing this was a fun and interesting survey.""""}","",,"","","","","",,,,,,
,instructions,22,795034,0.0-4.0-11.0,6851d3836698db9d924a5473,66ad7a9bda89473531598c06,6851dd440ef94e3c3e41d4e8,39,1,TRUE,1,TRUE,Player 39,63,"[{""""page_index"""":0,""""viewing_time"""":15332.300000011921}]",15341,"","",,"","","","","",,,,,,
1,fullscreen,0,3732,0.0-0.0,6851d3836698db9d924a5473,6629442858ac993227d2a95d,6851d761e9f1644032c496f6,28,1,TRUE,1,TRUE,Player 28,53,"",,"","",,"","","","","",,,,,,
,instructions,1,41116,0.0-1.0,6851d3836698db9d924a5473,6629442858ac993227d2a95d,6851d761e9f1644032c496f6,28,1,TRUE,1,TRUE,Player 28,53,"[{""""page_index"""":0,""""viewing_time"""":13504.099999964237},{""""page_index"""":1,""""viewing_time"""":8006.800000011921},{""""page_index"""":2,""""viewing_time"""":10381.100000023842},{""""page_index"""":3,""""viewing_time"""":5488.599999964237}]",37381.1999999881,"","",,"","","","","",,,,,,
,survey-multi-choice,2,53001,0.0-2.0,6851d3836698db9d924a5473,6629442858ac993227d2a95d,6851d761e9f1644032c496f6,28,1,TRUE,1,TRUE,Player 28,53,"",11880,"{""""Q0"""":""""... find all black cards whilst revealing as <b>few white<b> cards as possible""""}",[0],1,multichoice_part1,"","","","",,,,,,
,instructions,3,56395,0.0-4.0-0.0,6851d3836698db9d924a5473,6629442858ac993227d2a95d,6851d761e9f1644032c496f6,28,1,TRUE,1,TRUE,Player 28,53,"[{""""page_index"""":0,""""viewing_time"""":3393.300000011921}]",3393.5,"","",,"","","","","",,,,,,
,findSquares,4,91219,0.0-4.0-1.0,6851d3836698db9d924a5473,6629442858ac993227d2a95d,6851d761e9f1644032c496f6,28,1,TRUE,1,TRUE,Player 28,53,"",,"","",,"","[['0', '0', '1', '0'], ['1', '1', '1', '1'], ['1', '1', '1', '0'], ['0', '0', '0', '0']]","[[2, 2]]","{'i': [1, 0, 2, 2, 2, 3, 0, 0, 3, 1, 1, 1], 'j': [2, 2, 1, 0, 3, 2, 1, 3, 3, 3, 1, 0], 't': [5015.300000011921, 6947.199999988079, 9798.5, 12433.100000023842, 14298.399999976158, 16282.699999988079, 18431.899999976158, 19699.399999976158, 23048.80000001192, 25784.899999976158, 28200.19999998808, 32799.80000001192], 'hit': ['1', '1', '1', '1', '0', '0', '0', '0', '0', '1', '1', '1'], 'b': []}","[['unknown', 'white', 'black', 'white'], ['black', 'black', 'black', 'black'], ['black', 'black', 'black', 'white'], ['unknown', 'unknown', 'white', 'white']]",12,0,3,,,
,instructions,5,177460,0.0-4.0-2.0,6851d3836698db9d924a5473,6629442858ac993227d2a95d,6851d761e9f1644032c496f6,28,1,TRUE,1,TRUE,Player 28,53,"[{""""page_index"""":0,""""viewing_time"""":86237.59999996424}]",86237.8000000119,"","",,"","","","","",,,,,,
,instructions,6,192427,0.0-4.0-3.0,6851d3836698db9d924a5473,6629442858ac993227d2a95d,6851d761e9f1644032c496f6,28,1,TRUE,1,TRUE,Player 28,53,"[{""""page_index"""":0,""""viewing_time"""":12215.199999988079},{""""page_index"""":1,""""viewing_time"""":2750.900000035763}]",14966.3999999762,"","",,"","","","","",,,,,,
